EMG1,EMG2,EMG3,EMG4,EMG5,EMG6,EMG7,EMG8,Roll,Pitch,Yaw,Acc_X,Acc_Y,Acc_Z,Gyro_X,Gyro_Y,Gyro_Z
-1.070901048609531,-0.8474883164740824,-0.8229157598510072,-0.9338911981358472,-0.0950881877600181,-0.46224842787064,-0.781015784904139,-0.29573373890533516,-0.9596007806686152,-1.3349738680976304,-1.6748534037292335,0.9775390625,-0.20751953125,0.1513671875,-5.0,1.625,0.375
-0.4078781465280662,-0.8843550480646438,-2.251301492977216,-2.9590103067598528,-1.772035472064189,-0.8682112047315002,-0.21612912180885444,-1.1864036577700015,-0.9561896989762882,-1.3346141768438518,-1.677858013695973,0.966796875,-0.18994140625,0.1484375,0.3125,1.0,-0.625
-0.9393864607388344,-1.137924056925441,-1.5361365277553733,1.6634499727563437,0.8447121886773242,-0.391041537519402,-0.44433913369482525,-0.4756808826322512,-0.9772049794404921,-1.340110784208432,-1.6553306917503627,0.7158203125,-0.12060546875,-0.18408203125,7.1875,-2.0625,-2.9375
-1.6943929742164843,-1.7508258018467524,-2.3320362546434845,-3.5201463653112537,-1.6128586646209222,-0.6406196573465518,-1.9505411019789392,-1.0823823834561064,-0.9813146081013849,-1.334861613952572,-1.6491542876056349,0.95751953125,-0.40966796875,0.20947265625,6.4375,-0.625,0.0
-1.2738166964449633,0.02051107408637873,-0.10206242032500876,-1.702050878089871,-2.835949547465545,-1.6885869929945518,-0.3038299190470669,-1.002281404317915,-1.0437040989680555,-1.344863431491666,-1.585866129556194,0.7353515625,-0.109375,-0.63330078125,7.6875,-1.5625,0.25
-0.29695309605276404,-0.05230858361894709,0.4769699617594327,2.052844640747471,5.080375652922005,0.3632083483771957,-1.6593417300283007,-1.6086950799800657,-0.9680885064337084,-1.3369623257081729,-1.6579378811515622,1.19775390625,-0.111328125,0.90234375,2.5,0.3125,1.5
-0.8672113358582082,-1.4775913572389383,-1.836389034341896,-2.3292518694571043,-5.423457059568682,-1.0725544477714024,-1.4784363746618905,-0.6788872041228864,-1.0441928973398114,-1.3436778383715895,-1.58275758346969,0.7265625,-0.291015625,-0.64208984375,4.1875,-1.9375,0.9375
-1.6400574748083059,-1.1809865814907707,0.26935309870527996,0.7420181012539054,0.479490836843254,-0.20269564479925556,-0.7011956589713615,-0.6693579036966685,-0.9763772002074752,-1.3387865152011953,-1.6500505478384797,1.1748046875,-0.04443359375,0.7998046875,-5.125,-0.125,0.875
-0.92597256706513,-1.076843039176823,-2.166088513304643,-2.2888708069861514,-1.2236947632360304,-1.2157272080388335,-0.008553192179074501,-0.18411397587453357,-1.044477142849744,-1.3423442793510711,-1.5833504992261622,0.7529296875,-0.359375,-0.51611328125,-0.625,-1.5,-0.375
-0.4831253723221198,-0.42162739299066715,-0.085440677145444,0.5535963855024837,-0.08963119185555292,-1.7820415728482264,-0.7196985436519308,-1.4501545447459012,-0.9883975492832784,-1.3410809449972143,-1.6433273629008704,1.16064453125,-0.001953125,0.6650390625,-12.125,0.0,-0.3125
-0.7476342839273142,-1.8633825821233425,-3.411064532076377,-2.3113480354660645,-2.204187195228882,0.049585493070655115,-0.49016376486739666,-1.3914637903482032,-1.0502032639318877,-1.341690349382024,-1.5867091119765724,0.83349609375,-0.38818359375,-0.35009765625,-12.75,-1.875,2.0625
-1.178515326014354,-1.8990477636669896,-2.524676411307513,-2.7520192602805618,-1.5133436097336728,-4.2998158484458875,-3.6349582866740824,-1.5175114767160949,-1.0126733663104563,-1.3388704866446148,-1.635110160021336,1.15673828125,0.0693359375,0.62744140625,-36.6875,-2.0625,11.6875
-1.4004954437698822,-1.8510104380756007,-3.155300671810547,-0.3957979917053804,-4.5788386353122545,-1.2020861968014904,-0.8549912079191818,-0.8576561560344625,-1.0289903841607035,-1.3363030653233876,-1.6326549265830888,0.833984375,-0.01220703125,0.041015625,-41.6875,6.4375,17.125
0.009178584228714858,0.33254403592029635,4.086356199519749,3.127992543104983,15.123966368697504,4.186402320952154,-0.23595044449501948,0.39534086065180446,-1.040101981629214,-1.3288393097060252,-1.6466384413621658,1.00927734375,-0.08349609375,0.16552734375,-71.375,16.75,23.1875
-0.437553004998567,0.704856818006957,3.076875567175802,-2.3002440471589973,-16.607761295267224,-3.349124597134329,1.8785564904667384,-0.3267503532527687,-1.0709398256180631,-1.3175775590352088,-1.6526972098037764,0.98681640625,-0.2158203125,0.12548828125,-105.125,19.375,26.0625
-1.2270803023561543,-2.9010481633332805,-5.054927861585342,-5.07911283738855,-2.42169453561028,-0.3129882219121501,-2.8088633794732174,-0.31934702573838225,-1.0998722927583495,-1.304310196068993,-1.660300141170982,0.98583984375,-0.40625,0.15869140625,-102.4375,22.0,28.875
-4.080351732016841,-4.002090082337046,-6.496513326665317,-6.734095056584071,3.7644545113052152,-3.381725516738896,-2.896284707896191,-6.1515889038069105,-1.1177532264777004,-1.2846828415668845,-1.6688347738518694,0.95556640625,-0.4326171875,0.18408203125,-75.5625,26.4375,34.6875
-1.2364682963200548,-0.8054317840271688,0.761743453333876,-1.31370977292235,-15.485474696168668,0.6400057886835598,-0.6943345716656455,-0.5445563627738768,-1.1274767352060566,-1.2629371860877272,-1.6798727818517425,0.9423828125,-0.40478515625,0.20703125,-58.125,30.0625,43.0
-1.4550383983397215,-2.9094498854627187,-0.3288798124374881,-10.14325689968232,-14.61565007784873,-4.398787740267297,0.37276744589143584,-1.5947804912658692,-1.13512459605626,-1.2398101250883071,-1.6923496947655647,0.927734375,-0.38623046875,0.21435546875,-56.625,32.5625,48.9375
-0.02813833183198832,1.1920156039955045,1.6904791083834634,8.943498053044882,9.224280915670704,-1.121557359138412,1.8663898612638286,-1.1330200794545084,-1.1445693650554305,-1.2150831990333797,-1.7040306665503149,0.91845703125,-0.4013671875,0.2421875,-60.125,33.0625,53.6875
-2.5451095040906835,-2.3745540400803753,-0.5840042401620956,-1.0589485877063165,-6.878507268676629,-5.703103301230299,-8.098092887032541,-3.759742712387137,-1.1558216726368462,-1.188488688768877,-1.7127084212117334,0.91845703125,-0.42724609375,0.232421875,-56.75,33.75,60.0625
-0.5608944349847472,-2.117919566156779,0.2755359772502658,8.326742611384448,20.389078580919755,11.544029491995062,2.9714692602762494,-0.04796695357530623,-1.1636546025793937,-1.1585225688132663,-1.7271930206964172,1.00146484375,-0.34326171875,0.28759765625,-63.625,41.5625,76.375
-1.6838623797766958,-1.1928716951236167,-6.552098044557535,-5.766747844561279,-3.902011570220399,-5.955461037576388,0.16311080207885587,-1.199988241183269,-1.1924937706127496,-1.1197112457158975,-1.7258019760390813,1.0185546875,-0.4208984375,0.21826171875,-79.0,40.25,104.25
1.4886707631362488,2.535668978626445,-4.973799459085542,-9.014096754153636,-8.943100215292713,-3.9222806336231213,-5.125794402192835,-0.23648270416512607,-1.2226736996007257,-1.0714952077971778,-1.7154242110993967,1.029296875,-0.72509765625,0.28466796875,-59.8125,35.0625,131.1875
-0.5675731520437761,-2.852967009122201,2.5443625660820177,4.487343865663359,7.929502599632458,6.389704568761762,0.2202721810059386,3.3420375504064097,-1.234665795918536,-1.0118417652285203,-1.7103573080495817,1.04443359375,-1.00390625,0.40576171875,-21.875,47.5,157.9375
-3.479750742764109,-5.334464550916156,-5.88782399581724,-9.839263678957252,-4.43340583965192,-8.572487469028568,-5.660450468175893,-1.62350609812018,-1.2275043283324856,-0.9385887499452576,-1.714631693760343,0.96728515625,-1.208984375,0.50048828125,9.25,72.8125,187.875
-1.450459731262451,-4.5920768666478065,3.422513168958965,6.3946325580620424,-11.916554206598386,-1.6916479276350007,1.7934570324333272,-0.7090199337920524,-1.2127599224630805,-0.8507888369473124,-1.7182274786578753,0.78955078125,-1.2666015625,0.525390625,34.125,88.6875,226.1875
1.1581953169626866,4.748189110492972,0.8460073245919202,-2.2717374785946016,2.6612936883617375,1.5326966780850917,2.2327622206817375,-1.0212273156730216,-1.2021150823061673,-0.7469507566234114,-1.717953495541929,0.693359375,-1.3388671875,0.564453125,29.875,101.8125,270.6875
1.3723043992477935,6.571446456920191,-4.112479977146349,-6.663320712366603,3.854567621321315,-0.129685783171444,-1.763938917461943,-1.070682019587092,-1.190704323232156,-0.6284331180871574,-1.7182034546861056,0.638671875,-1.474609375,0.6728515625,31.4375,121.25,309.3125
-2.8485134475182323,-3.9809147503135702,0.23304457252999503,2.130988870343269,-4.284817558547067,-0.4330514745782957,-0.5326373565652345,-1.8069971238817575,-1.1718297460866047,-0.4982585189729538,-1.7178465138737151,0.53173828125,-1.5166015625,0.67333984375,54.375,138.5,340.9375
-4.443960843516632,-6.318214066598178,4.932243265201066,10.432857722305702,13.915328687454474,5.084521193509365,1.7697247808157541,-1.0741235954584987,-1.1498136425845646,-0.35785174863756924,-1.7125479054781776,0.42578125,-1.46240234375,0.57958984375,70.1875,147.5625,372.375
5.2619736737381,9.260009492797723,3.614205391103466,3.245982025932645,-0.19597946457942383,-4.806610400345172,-3.3383913984934046,-1.4081744991022014,-1.1288222626791646,-0.21094024611495435,-1.7021132340262153,0.31591796875,-1.404296875,0.5322265625,70.625,150.4375,394.6875
1.500335949443068,4.526252460726415,-5.531812174532038,-9.424905242563096,-16.822849308976824,-2.239762318978624,-1.9875523891112565,-1.1882516569747783,-1.106930856767642,-0.05835219336937605,-1.6841144019152474,0.2685546875,-1.43017578125,0.42529296875,74.25,147.4375,418.9375
-1.8050496765317403,-2.2533881221952123,-3.6594308259800803,5.109637410910805,10.517562724302541,0.2725822165723024,0.3601589601623719,0.014313297423648388,-1.0771601052913145,0.09616855113985996,-1.6603374971857288,0.2021484375,-1.33447265625,0.38134765625,88.9375,146.375,430.4375
-3.1969512850592046,-4.694966372430787,-8.800609731263785,-4.9581477079120795,-1.4792990399990782,0.1662087844082846,-1.4702221492346645,-1.2958973718819746,-1.0403764405456857,0.24984803035904224,-1.629127958348658,0.05419921875,-1.1416015625,0.31591796875,95.125,141.0625,433.375
-1.4985938636580294,-3.121338880445252,0.552668093264396,-4.15345152762608,-8.915551756724158,-3.5159865506239516,-3.233168180539003,-4.285416437043745,-1.0015696777264418,0.39750507988725575,-1.5877504467487826,-0.10498046875,-0.94384765625,0.2724609375,78.0,126.625,425.0
-3.4675535664820196,-3.3643837300335195,1.4182330102980665,3.084378008320333,-1.61174862424508,6.2626179852938675,2.9981811417663793,-1.2815375974609093,-0.960840816525528,0.5320838918020863,-1.5348281220414968,-0.15966796875,-0.87890625,0.2197265625,53.1875,102.6875,402.3125
0.83087835690148,-0.13807203704803261,-1.1282465633015941,-1.1575627053972186,0.8972076011010353,-0.8234132532408781,-2.168683777092203,-0.19059338639885043,-0.9080637087512696,0.6528168677584687,-1.4719249776104333,-0.1181640625,-0.81787109375,0.2119140625,54.9375,86.25,374.625
-2.9146751677772933,-2.0579400234210143,-1.1855732285120217,-0.4596399066635439,-5.361106355171775,-8.08494029204148,-4.1671715506223705,-1.5393095509875756,-0.8389292309217776,0.7589841744696713,-1.399726644141227,-0.07275390625,-0.67236328125,0.23876953125,66.875,77.125,341.75
-2.672999053380715,-3.5504478035898432,0.8291363944846919,3.2559806145294212,0.5538537908171453,1.1554966666965374,1.411883869801247,-1.1040363484165923,-0.759681023480774,0.8476228837831308,-1.3162200127116441,-0.0185546875,-0.44970703125,0.19921875,57.0625,60.4375,303.75
-0.2165885938237633,-0.6631789334078503,-1.2085161093359,-0.6889687496021091,-0.08649255084475829,-0.7731664624348863,-1.1502214409458453,-0.26592790786042775,-1.1434716018294275,-1.2450592718147842,-1.4450265816460202,0.94482421875,-0.29296875,0.13232421875,-0.4375,0.625,-0.0625
-0.15687073079750638,-1.3138096540751587,-1.4314268246337647,-1.373236241518138,-0.3714237059954742,-1.1540387077431442,-0.17183620771936015,-0.18743056748926099,-1.1434716018294275,-1.2450592718147842,-1.4450265816460202,0.9453125,-0.291015625,0.1357421875,-0.375,0.3125,0.0
-1.1190529136041603,-1.9867415391169398,-2.0548104765576944,-1.8684147468937373,-0.7007437440126025,-0.7933670879255929,-1.8777666243854745,-0.8759814942997967,-1.1430282547036656,-1.2454295041826131,-1.4464167248240254,0.998046875,-0.29296875,0.13525390625,-1.5625,0.8125,-0.0625
-0.8550349413763866,-1.29283941181791,-1.559482218091618,-0.6042984666270536,-0.16979730560496073,-0.33930013143208615,-1.3115698636918531,-0.7664596019256343,-1.1699483902151266,-1.2506047650649943,-1.418897015014562,0.65673828125,-0.1484375,-0.3515625,3.8125,0.0,-1.25
-1.3880632451315635,-0.46489315606536724,-3.0300907037104046,-2.4532808085212383,-0.4105442794641888,-0.9745957336809374,-1.696793572767245,-1.3787164333640283,-1.223033576954213,-1.2566756209685381,-1.3689813823652737,0.70166015625,-0.228515625,-0.6279296875,-1.1875,-1.0,-0.6875
-0.9053636366003697,-1.9055527857855759,-2.2863801550680676,-0.7612967709417329,-1.3013932896941158,-1.303845889814007,-1.3381647169623017,-1.6914389484658396,-1.1739485925722994,-1.2565492669641285,-1.4170118729345187,1.14501953125,-0.123046875,0.72607421875,-4.625,0.5,-0.3125
-1.1614872123860605,-0.7820189096015001,-1.140993090337005,-0.26969965148899394,-1.5153226904147687,-0.01724612282668657,-0.7972389357212372,-1.8018152806593188,-1.2068102837628047,-1.2543835468931843,-1.385650618521682,0.79248046875,-0.515625,-0.251953125,2.875,-0.625,-1.0
-1.1895279969812602,-0.8317376262184367,-1.9007801006944829,-0.5645278070781257,-1.5475323804173435,-1.2816366302859323,-1.4057288858080756,-1.6348513769642945,-1.1824863087558344,-1.2582132372060224,-1.4103523818313948,1.05859375,-0.05322265625,0.37548828125,-5.0625,-0.25,-0.5
-0.6371968154671048,-0.972550712193718,-0.6623007961257199,-1.3315211484685707,-0.7443793668496467,-0.43794763075572385,-0.8274803670936417,-0.9056642928321805,-1.1939620376196238,-1.2530499873459633,-1.3979587401704567,0.8740234375,-0.541015625,0.03759765625,3.375,-0.125,-1.1875
-0.8920655460008725,-0.839336714071799,1.8569557537590504,-1.035686154306754,-1.818376977479266,-1.225651539364062,-0.9880222469842969,-0.8819259346932323,-1.1890683886123463,-1.2585860083929068,-1.4039273258005198,0.9833984375,-0.05029296875,0.10791015625,-4.0,-0.4375,-0.25
-1.4761537387076213,-1.9151324439128152,-0.1265299475334427,0.7617639447381707,-2.882837626537817,-0.46459592907773123,-1.4206672496305044,-1.7414735386388993,-1.185523769677301,-1.2521775877478682,-1.4064106944394867,0.931640625,-0.53564453125,0.24072265625,3.375,0.5625,-0.3125
-1.8642738057434252,-1.490842176609856,-2.173969665407074,-6.935980341845136,-9.546454800354772,-3.32407036621909,-3.210861799301228,-2.4192908260520203,-1.1900434680320184,-1.258072526541753,-1.402889893252426,0.94580078125,-0.06103515625,-0.01513671875,-3.125,-0.5,-0.0625
-0.7169104333832853,-0.4326914730904624,0.38441078237675425,12.034271050608115,13.154537278939712,4.018664311683496,0.8417054006938437,0.6933187268302351,-1.1708810047865994,-1.25080319197819,-1.4203818650259643,1.07421875,-0.51904296875,0.453125,2.5625,1.0,0.4375
-1.3142242688324983,-2.0891696726275684,-4.920507890735473,-9.875557498246355,-7.031697363827056,-0.9752396339691622,-1.272034194099537,-2.454738117844861,-1.1647676338289934,-1.2490557892861298,-1.42744629357656,1.0791015625,-0.2919921875,0.20751953125,-2.6875,3.5,5.1875
-1.3262915649365201,-0.540593969811352,-2.0497486104887055,-1.8574092599449121,-6.674216642384514,-8.52889656060299,-3.01549339605508,-1.5260954135593843,-1.1649522203066047,-1.2466299559764455,-1.4295157434277073,0.96826171875,-0.26318359375,0.16162109375,-7.3125,2.25,7.5625
-0.3832732800049349,-1.2414857607450631,0.5194376063132469,-2.072666972423297,4.116918543448948,4.110211740110262,-1.4183557226287276,-1.6618129712490826,-1.1676193863933422,-1.2426955613645192,-1.430680468024202,0.962890625,-0.2939453125,0.1396484375,-11.8125,4.375,10.5
-1.9991664079674183,-1.9006510619032198,-1.3188275171603594,2.1643844875426423,-2.8930781292937042,0.9177774505123526,0.43441021352791404,-0.5283198756547802,-1.1715265198529237,-1.23737202596728,-1.4309380361442812,0.951171875,-0.310546875,0.140625,-12.0625,5.4375,13.0
0.2946509315809122,1.2287676627291386,0.6010978179169012,9.469682199091942,12.251748739658563,3.5648523809740595,-2.9915163411115024,-1.651735805756559,-1.1741490818327804,-1.2312642812793728,-1.432483832610126,0.943359375,-0.31982421875,0.14599609375,-11.8125,6.875,15.125
-2.5779048323789477,-1.133181174579843,-0.058546826860649985,-6.237949001432435,-30.63851640043221,-9.667563742264628,-0.7770955850502391,-1.2191270935934078,-1.1735595576069056,-1.2240757324961498,-1.4376581857365702,0.9169921875,-0.30810546875,0.16796875,-13.125,10.0625,16.6875
1.336537233098266,0.6522508317295111,1.619248339382779,9.508330895275588,7.980907138679175,19.789294344049534,9.003307940433556,-0.036945693178555825,-1.1738052470415203,-1.2152824072873067,-1.4456445419385298,0.91748046875,-0.31494140625,0.22900390625,-23.875,10.4375,20.3125
-1.9918329382350513,-3.256301960912163,-7.941665975986747,-9.136748687502486,-16.22537979456335,-22.236600928103297,-15.913724477014336,-1.1366986897979736,-1.1826600722423448,-1.2060174582752978,-1.4442358622000946,0.9033203125,-0.30029296875,0.2138671875,-23.5625,3.3125,26.5
0.3671818575872396,0.5114517653376892,3.8063440368600703,-3.688978402986815,16.036939844200877,13.941967218758212,1.631358585144821,2.623148627529084,-1.188272249128575,-1.189199039953134,-1.4438685682865728,1.0400390625,-0.45068359375,0.3232421875,-18.4375,6.625,40.6875
1.9811398452907867,1.6878187988020814,-1.371446009785619,-7.839876620593199,9.500108752569291,1.042505941795163,-0.8402938968394967,-1.1713131447349905,-1.1771808502803578,-1.1633982811747237,-1.4560067746835343,1.13134765625,-0.5537109375,0.40576171875,-5.875,26.0625,56.25
0.31017218292104975,1.898315985820858,2.218791925082945,3.173812443010854,2.7401774509049828,-8.053700701624606,6.7309841976508675,1.1360555132403656,-1.152281078244448,-1.1259651357061116,-1.487328924182877,1.08837890625,-0.4541015625,0.50048828125,-17.9375,57.75,85.5625
-1.8926765856233834,-2.005912068640631,-6.135280100800471,-5.57410299065274,-20.472693824815142,-3.058202425948914,-3.248469364245379,-3.004151635008374,-1.1597508350658352,-1.073053006015511,-1.5024845899992074,1.0400390625,-0.69970703125,0.47265625,-61.375,75.125,127.875
-3.2578271579489284,-1.311366876454447,-3.5566667721043945,-7.421446468635374,-1.9881080462036929,-9.856327079958076,-1.114963825306984,-1.854189495404387,-1.1704720160516924,-1.0056429263238815,-1.5183734251995515,1.07958984375,-1.0927734375,0.5556640625,-70.625,93.0625,161.625
1.4004936071844725,0.43653698743210095,2.3284459282161585,4.556826549226824,-1.2394225933605383,4.505553506298931,0.0225744874585873,-1.0351618179833237,-1.166739679447294,-0.9170790264957212,-1.534472138709662,1.0322265625,-1.24609375,0.59130859375,-27.6875,119.875,216.3125
-2.983251597246527,-2.506587561867049,-8.078047107326604,-9.130852982766072,-5.0747204252756255,-5.331009769653824,-2.2453826696361237,-1.8791906131496032,-1.1516036460810573,-0.8059729308231444,-1.550973038651867,1.02490234375,-1.3154296875,0.59716796875,7.5625,152.9375,274.625
-0.8722832291864155,1.1199146215121154,-1.2274491782545238,6.401162481665137,12.600123290137821,0.7099690083945649,-2.4600228540557634,-1.1452762465787862,-1.1354970169970124,-0.6748061882430662,-1.563229659489479,0.927734375,-1.3662109375,0.6435546875,22.1875,178.0625,328.1875
-1.5992580159280452,-1.735049946422248,1.0360032811508195,-0.4960236196976065,-5.855096842552689,-1.923814380362082,-0.5402149606181128,0.3922352062408242,-1.1247325169226936,-0.5273576650111123,-1.5679303548124974,0.75732421875,-1.43798828125,0.60302734375,24.25,189.9375,375.625
-6.076875018921959,-9.153176771978478,2.030320917541213,4.415962703866762,-4.094059159139521,0.6905479491986392,-0.7907996427034761,-3.6496107619463043,-1.1140374682180028,-0.3690354955186071,-1.5659898582838097,0.4658203125,-1.44140625,0.58984375,34.5,193.625,408.75
2.303223434096187,3.5004562992741963,-1.6661545672920828,-4.421247118927305,-1.3950973492630925,-2.40669910383892,-0.705873125097657,0.4524979844208986,-1.0997903446235882,-0.20197620093554933,-1.5549429857561177,0.31884765625,-1.38916015625,0.5107421875,52.9375,188.25,442.75
-1.977949726180373,-5.046278710471213,-0.5924292151029885,-3.0014305871345273,-6.783869899850105,-3.75388785435587,-1.7705885161799213,-2.279770026906847,-1.0795550722548346,-0.0300193363512994,-1.535902452514025,0.08837890625,-1.26220703125,0.4677734375,67.4375,180.9375,463.5625
-2.40737134829236,-5.419623903014298,-2.9965026456974133,-0.7537095973693951,5.104512555286788,1.2277800246952757,-0.546060925986406,-1.3437117081309904,-1.0494438749158683,0.13885712252177992,-1.509406738302758,-0.09130859375,-1.1630859375,0.38134765625,86.5,169.0,462.375
-1.0332638026471117,-4.536574291484697,-4.361542398912634,-7.426017576839489,-5.1278256746129705,-0.8524062351908517,0.4333211279816621,-1.2874644648626004,-1.0103915271286814,0.2970035722994903,-1.4770415018044452,-0.1845703125,-1.0537109375,0.30078125,96.8125,156.25,438.375
3.2471797697989615,2.6604236187782253,-2.2695195106125965,4.892204404376473,12.232265814206128,3.0497067264254296,0.8357717037091577,0.4365504544700942,-0.9651629290466038,0.4424157033448365,-1.4360085736132655,-0.0966796875,-0.91748046875,0.25927734375,91.8125,139.25,414.625
-2.893600934011078,3.8011181040384616,1.1517521073799464,-0.48374830937461727,-7.137853879197851,-3.131224849799588,-2.5489693131369973,-1.094628506285227,-0.9142322538300104,0.5739654946588341,-1.3873966425415802,-0.10009765625,-0.787109375,0.23193359375,82.5,125.625,382.625
-0.3475280751691677,1.3358681351047843,-0.5332294004094222,-0.1480128488239892,-1.7996841308484863,-1.4652013246565112,-0.8891083550950889,-0.44440326925063245,-0.8582775270602345,0.6910727712594671,-1.3301881955894528,-0.1513671875,-0.74755859375,0.17431640625,67.875,110.9375,350.625
-1.2832151693662663,-5.072071142096833,-3.394062725017503,-3.8028143127394904,-2.7803454944165433,0.8826828733869111,-0.6613367778091297,-0.9119696563583471,-0.7980495104953429,0.7918328851393163,-1.2658568777609256,-0.111328125,-0.681640625,0.166015625,52.1875,95.875,312.0625
-1.6601734883644568,-2.731175699206424,0.041664105362238024,-0.24977268396117586,-0.21096695087196324,-3.357310665382805,-2.5564658656453547,-1.6956148180304957,-0.7290826011696957,0.8786138908276058,-1.1896685424617606,-0.01318359375,-0.55615234375,0.16162109375,38.9375,80.125,285.0625
-0.5693662471030723,1.52899624111677,1.9636684558959283,1.0900467545603596,-1.6050724565153691,-1.3666617833911545,-1.007403190280677,-0.47846507444106245,-0.6514295123768831,0.9519170815177792,-1.1044490008342638,-0.06982421875,-0.41796875,0.19970703125,30.6875,69.25,254.0625
-0.1516508886179519,-0.45756929271158003,0.24793575284342662,-0.5699941249600872,-1.1578892594485173,1.3032262638488594,-0.22231563901310095,-0.05618605537463642,-1.09236044687155,-0.7352575308172359,-1.821128015887415,0.6796875,-0.560546875,0.3056640625,4.4375,-7.4375,-8.25
-1.5426256000264886,-0.6716999771283152,-1.9623614723787581,-1.7137278409422991,-0.8006323849733511,-3.261730102103806,-2.5735440044462297,-2.217648423023952,-1.0941630409688032,-0.7427010988189309,-1.8188312034253165,0.6923828125,-0.56982421875,0.3154296875,-1.75,-12.6875,-12.0625
-0.13384583457304444,-0.9234294452184705,-1.266361349290746,-1.908245382015049,-0.9936830406260055,1.0117777906191636,-0.04561235460421818,-1.2734493511354217,-1.0964603049386965,-0.7505449678175707,-1.8163791593134329,0.63818359375,-0.58056640625,0.33837890625,-3.625,-15.875,-16.1875
-1.1622975934776099,-2.485755603918511,-1.632086918319294,-1.5434594185794475,1.152959264574294,-4.460859301014389,-2.4714723813251878,-1.4418217546181946,-1.1143891509675494,-0.7605193904866591,-1.8038082819184689,0.46533203125,-0.48388671875,-0.25732421875,-4.0625,-14.0625,-16.0
-1.652012677260607,-1.3408191351060035,-1.4271716426825332,-0.398441269176352,-1.0471090603716966,3.477507427440826,1.5651735337992911,-0.08581763963891396,-1.1255394223826642,-0.7737797948479013,-1.7972454699069906,0.6982421875,-0.41455078125,-0.00537109375,-10.0625,-13.375,-17.125
-1.9102566003190198,-0.948488382888889,-0.44973986247981523,2.2483507767445885,7.470941194289223,-1.2228230765279258,-2.1291180390823166,-2.1430532044685133,-1.1152746932163249,-0.7762363274433599,-1.805834017154747,0.81201171875,-0.81005859375,0.83935546875,-8.25,-10.75,-17.4375
-0.30306993227077733,-0.9187862796302871,0.09760077454078937,2.4928149801485,4.985873438772326,6.460111566609757,4.168255453188576,0.13517918777914795,-1.1332391314323678,-0.7880222622070095,-1.795344908885637,0.62451171875,-0.47265625,-0.2080078125,-10.4375,-10.5625,-16.4375
-0.5033113432271901,-1.0858553465371474,-2.97552303367111,-6.451313440371372,-4.301454071943923,-3.926509098910425,-1.3084806258789023,-0.4623167710595893,-1.1235500850048992,-0.7883760024592437,-1.8037043655746603,0.771484375,-0.82763671875,0.77392578125,-6.5,-7.625,-15.3125
-1.460621989025124,-0.5777330766404224,1.3940288530934002,7.650191349090139,-18.242295847452954,-12.518924254540947,-1.7267204571805628,-2.0293126946560367,-1.1366283275567342,-0.7978939740491511,-1.796492080142032,0.6748046875,-0.46875,-0.06591796875,-10.5,-7.4375,-12.125
-0.6063444000671272,0.05586614192469453,-1.7551479681625408,5.771431683951953,7.83918749265274,9.064009483470327,-4.321631209204169,-1.320039280912412,-1.1327058525161382,-0.7960376933011647,-1.8014206153138526,0.70703125,-0.85302734375,0.6083984375,-8.25,-4.625,-10.9375
-1.0511877695439926,-2.298591960443571,-3.65345932754317,-5.734512972002817,-9.176363421938657,-0.6596019313646372,5.9829092104495,-0.7164906437512693,-1.1385818797526146,-0.8022388612667519,-1.8018142552997278,0.76806640625,-0.482421875,0.2177734375,-17.0625,-2.3125,-6.4375
0.411729260902754,-0.20954282709551708,-0.24513525566462702,-10.33606108744535,-10.417699529038737,0.6928664170147433,4.443085895302974,-0.7392582563599837,-1.1490056215661069,-0.7968837297016772,-1.7993020974845648,0.611328125,-0.8603515625,0.25146484375,-19.25,1.5,0.0
-5.58970045623919,-4.124247033304788,-7.698223685928514,-10.034172725566949,4.709015396642552,-8.72321747219605,-16.750866156496592,-4.970708940263887,-1.1697452517885605,-0.7915266976546164,-1.7910329258138111,0.48388671875,-0.6328125,-0.10595703125,-25.625,5.375,11.0
-0.6853499444340149,-0.693296262607058,3.6042486458754053,11.065592641560405,-8.794355821515683,-9.494887268847682,0.7068964507580162,-0.09525611523762138,-1.1770210452892251,-0.7760734219259946,-1.7883479827192803,0.806640625,-0.91650390625,0.41552734375,-16.875,7.0625,34.9375
-0.14824070251894386,0.31545274509073806,-2.6488718269150358,-11.466271198999435,-16.603101825775955,-2.6057819677531953,-0.9502960275269865,-1.6126723798479916,-1.1814411700347278,-0.7534421449581834,-1.7798133780391596,0.81787109375,-0.962890625,0.404296875,4.3125,4.6875,59.375
-2.791455692658274,-1.549325040299877,-3.2329265066406148,3.7780371545093843,4.9135718423471,2.5838663642519686,-3.1392382731194326,-1.5138722243044929,-1.1756390669098593,-0.7204790376258577,-1.7727996801482817,0.83447265625,-1.03564453125,0.458984375,28.1875,18.125,85.125
2.203240662005997,2.7790781250959755,6.815848273013615,6.119050302587012,-1.6838576306796311,0.2415551620945742,6.153300378006033,0.8784262715670933,-1.1644597477384064,-0.6775967432789365,-1.7673194464125506,0.767578125,-0.99462890625,0.517578125,41.375,35.3125,117.0625
0.9145741863735417,1.4147251374382968,-5.327068905678509,-5.162033312976836,1.7646021641918332,-0.607325290124463,-1.071955191394841,-0.9307448919499514,-1.1636117116327176,-0.6202181288214311,-1.7566922788832806,0.693359375,-1.05419921875,0.4560546875,20.3125,42.125,158.4375
3.685666636864629,3.818496699385413,6.382205949883785,-3.469902663671052,5.6344993645093515,5.763083409375231,4.904226389275773,3.8293238910783436,-1.1707891619674384,-0.546073149334736,-1.7431033540483685,0.6845703125,-1.29052734375,0.52392578125,1.375,52.625,205.8125
-3.5744861345919863,-6.379391089627847,-14.66203715975996,-0.15109057415886973,-2.7620782135491937,-6.538223303972607,-9.00817885874059,-2.4809190346696606,-1.1675422185068844,-0.4530062778748416,-1.730200283423592,0.57958984375,-1.46240234375,0.65771484375,26.8125,73.0,255.625
-3.437708142081744,-4.7964008201650215,-6.186050241570991,-10.497717894212629,2.3684893722100204,8.57337315782071,-5.9655086565319095,-5.148578612862766,-1.152324386657679,-0.3443006314895527,-1.7138467624732547,0.2646484375,-1.4365234375,0.74755859375,60.0,82.0625,298.75
-4.087196856763351,-3.159572519475946,23.226735131874634,14.897941879700099,6.4448644111122935,-0.871477327898982,-1.1804716960963317,-2.8922310482324796,-1.1320423478555148,-0.2192617102107068,-1.6901542522224895,0.0458984375,-1.34912109375,0.71826171875,75.9375,87.125,348.9375
0.46075875522735904,0.6412220001292107,-4.252795415820169,-6.971823503712174,-11.844077056998795,-7.365553556016667,-2.2107357030727686,-0.9575688924647927,-1.107818176982984,-0.08239657778129397,-1.6612646637113382,-0.21484375,-1.2939453125,0.6953125,81.1875,94.625,383.8125
1.3780958180960283,-2.486814949221533,-18.347675896769726,-10.971168015002744,5.1255583658901305,3.255034339712858,4.710299958801528,4.5911004942191305,-1.0756337678803838,0.06361273743188184,-1.6268337168466231,-0.43505859375,-1.16357421875,0.6708984375,92.5625,102.4375,412.1875
-4.928389008317843,-5.424127173705066,0.7159317323052197,0.9715622414641837,-5.837632940644328,-4.180799757701764,-2.236690366948957,-1.0186841012611838,-1.0334545890493227,0.2110528784807593,-1.5876118483574455,-0.48583984375,-1.0810546875,0.66162109375,105.4375,109.9375,420.125
-0.4595028347699726,-0.6765381092352047,8.668241882305074,5.673468754036442,4.137287499316716,2.5065603402919128,1.8954028234516551,-1.271545078375206,-0.9702336178160214,0.35621689286014196,-1.5419037776258953,-0.40625,-1.0107421875,0.5810546875,145.625,118.1875,419.5
-2.3828617144860935,-2.1775490447507178,0.012937291461220567,3.448787527844838,4.63106718376406,-3.452707509425954,0.44666147731327177,-1.7129398598287704,-0.8925215625757518,0.4894270529913431,-1.4942484602797614,-0.3525390625,-0.8193359375,0.50732421875,168.375,128.9375,383.625
1.0229508717328815,1.0169337060189017,6.436510899479265,0.9998418291930964,5.909145210152584,3.8332442722488436,2.039526094091599,-0.03463487529695884,-0.8107435115591344,0.6111394284558922,-1.439728528134611,-0.2431640625,-0.66064453125,0.40625,154.9375,131.25,354.8125
-1.130719914688372,-0.29084592478806803,-8.44918259882755,1.6650473207480934,-0.8933699293501579,-8.658480144122025,-3.8490367242417136,-2.6551346753651712,-0.7314842766083529,0.7195322277192266,-1.3769538466001234,-0.20947265625,-0.57763671875,0.36669921875,118.125,126.25,323.0
-1.998565507063842,-0.6458400653073068,-3.0739470589544244,-4.355348472219281,-9.494470439381296,-5.937876901322,-0.8916873600417725,-1.5165489717353842,-0.6539227190297923,0.8119201616990397,-1.3111658211807606,-0.13232421875,-0.5576171875,0.34619140625,94.1875,119.9375,279.5625
0.29896319532300075,-1.3756473866557875,-3.7855023574227524,-1.7303706296211705,1.6195935478192565,-3.5772430233848502,-2.983098463285635,0.1354881721526477,-0.5758976740174556,0.8880817943013936,-1.2460044055994786,-0.09130859375,-0.5009765625,0.32470703125,85.75,110.6875,233.0
2.9885249983056914,0.8310361274553392,-6.909046980155631,-6.795632282708662,-8.22032950282597,-2.33721605087156,-4.608334346842473,-1.5465828749467343,-0.4997481438606611,0.9485403800501229,-1.1826536459163972,-0.1142578125,-0.3994140625,0.27587890625,75.9375,95.125,188.25
6.012011445456138,7.968375069789282,7.534291139229103,13.82557776937427,10.279079543731683,5.929695377746095,1.415011503333819,0.34866838518258464,-0.42567118840824736,0.9956427919278852,-1.1159468906975016,-0.0751953125,-0.2998046875,0.24951171875,55.75,75.5625,160.875
-0.8421373038326303,-1.2419500331977265,-13.442336335402118,-5.946633468789516,-6.385246642167041,-3.5179530509766246,-3.996839638741046,-3.249115210930937,-0.3615442796772504,1.0301050118413428,-1.0538097912851687,-0.14599609375,-0.21533203125,0.2880859375,33.625,58.125,127.4375
-0.5165090965609984,-1.3483163362904804,2.114612436911635,-8.129697900710093,-10.9775579612914,-2.2262034378949167,-1.678334399393622,-2.341720935377942,-0.3129539348205459,1.049314013099952,-1.0046660203760356,-0.1865234375,-0.14501953125,0.32080078125,18.8125,41.4375,92.25
-1.9925708004845726,1.0407957050525327,0.39818173687934433,1.1749789095975913,1.9238774169666544,0.37361942491647454,0.4265276126137518,0.10281895197163993,-0.2870670261448919,1.061152764117421,-0.9761536381174604,-0.32080078125,-0.1591796875,0.3173828125,5.1875,29.125,55.1875
-3.3192062780403875,-3.4282644626552004,-4.103491204760869,-4.182615021096942,-2.538882425694628,-0.25285399520991153,-0.046388733188616055,-0.40716562649060345,-0.2721627860502654,1.0660925065551292,-0.9572176377774626,-0.35791015625,-0.08447265625,0.3720703125,-5.5,17.1875,31.125
-3.974819524295987,-4.139432616637634,1.8695724016061106,-0.00017938926919771188,-1.4036354907583035,0.21373965738354955,0.08396993330616932,-0.6264475914225329,-0.2761578416039103,1.0664675139992494,-0.9557292688685616,-0.5751953125,-0.0048828125,0.359375,-18.25,4.25,-2.75
-1.6720648722671703,-3.973810367118467,-6.1755343759521395,-3.9704855196848565,-0.9514111125581319,-1.5491872111508815,-1.7904785581824716,-1.3342538755260862,-0.30356210506200715,1.0611044921295714,-0.971768280584598,-0.6865234375,-0.0791015625,0.37255859375,-39.5625,-8.375,-28.25
-3.074279919376437,-1.8590180927115985,0.5000629459702973,2.133875882023014,0.43714851719791076,0.08353645608107754,-1.5513770274517127,-0.33895196570605146,-0.33532929868251865,1.0552347747973092,-0.9917263550274172,-0.80810546875,-0.16064453125,0.42041015625,-40.875,-8.0625,-31.25
-3.3051246261587366,-4.027303531428485,3.814643057863787,-0.2937674324233735,-1.240096970066606,-0.5866017884850763,-0.00030743241139438943,-1.4790561082472362,-0.35710921327508804,1.051512839070268,-1.0075139050494426,-0.89599609375,-0.1494140625,0.5078125,-24.625,-0.8125,-26.5625
-1.6158328102700243,-2.937599068587428,3.096923171258342,1.9219857708642434,-0.48455890267238055,-0.7228008346199627,-1.1114784109754086,-2.0274790135056486,-0.3736778545722572,1.0515293691905356,-1.0239359959722312,-0.87646484375,-0.109375,0.52197265625,-9.625,12.1875,-26.125
-1.4094858412256208,-0.9397154680892578,-2.551381079452586,-2.772020451471215,-3.3209793462195027,-3.6408564191865547,-1.2182073435810683,-3.6128048497395526,-0.3914446468114327,1.0554170853050835,-1.0503218198184558,-0.857421875,-0.04248046875,0.52978515625,9.25,29.375,-39.5
-2.8207718587273045,-1.4787820037719948,-0.4409871671049729,-0.5903394693246091,-0.6764165346447564,-1.523022949728306,-0.08226404017147525,-1.7433213181693819,-0.4129632784517801,1.0605728902746456,-1.0860931631840638,-0.83203125,0.00439453125,0.5302734375,20.1875,39.625,-52.0
2.255288043355167,3.355360072599815,3.8555843076676397,1.868087312517672,0.07064008031325092,-0.6363765099580637,-1.015924428234161,0.4049561991411988,-0.4404642529235125,1.0649439907048643,-1.1310042125689528,-0.85791015625,0.03076171875,0.5341796875,24.5625,43.5625,-66.1875
-2.2075605920062693,-0.8386602332977098,-0.7064309427098314,-0.2240284055024917,0.09638821063575141,-0.8268693581769271,-1.4498931017623244,-2.1947892473070474,-1.1626143902311767,-1.2492980189694334,-1.3225200925619474,0.9423828125,-0.28857421875,0.1201171875,0.0,0.125,0.125
-1.0023386904093217,-2.0820846249678966,-2.0252691234409164,-0.9518739446223351,-1.6718124028824966,-1.972748061579887,-2.9131338469041466,-0.5590346362214537,-1.1482868120397636,-1.2478594325141648,-1.3381122648110042,1.15625,-0.30615234375,0.3310546875,-4.125,3.0625,1.6875
-1.5823633882318713,-2.0335808169778167,-3.024103891583356,-1.4743142261761104,-2.284299170286936,-1.870412485561824,-2.716743265817119,-2.885995393684107,-1.188634835014485,-1.2529292221016104,-1.2999634082084477,0.685546875,-0.2041015625,-0.49951171875,-0.0625,1.375,0.1875
-0.7954873915637025,-0.012161439177490414,-1.3168606818385402,-2.026905662787794,-2.072541070981005,-1.3833430107901712,-0.020027977423582404,-0.053593298047658784,-1.2083584956027744,-1.2594550139967804,-1.2824194364421584,0.921875,-0.10595703125,-0.21044921875,-3.5,-0.1875,0.0625
-1.5218519607012688,-1.664770644659091,-0.3354632067499081,-0.42536870621148476,-1.3229669728203766,-2.033378642363047,-1.224498576658149,0.746744176595135,-1.172447467448985,-1.2512008532550902,-1.3159347762553508,1.05419921875,-0.470703125,0.66015625,-0.0625,1.0,-0.375
-1.1106413523294596,-0.6865351099683179,-0.7499493488626775,-0.9855782671565649,-1.152964736638974,-0.8755592027531502,0.18928430872108293,-1.67468310185753,-1.2081302035741155,-1.2586541025197868,-1.2826538206059184,0.833984375,-0.11962890625,-0.42626953125,-2.375,-0.75,-0.25
-1.4353819736360824,-1.0295722829178002,-0.6543718489945072,-1.769585158528384,-0.5190143882840167,-0.6484962154218225,-0.5606580416855751,-2.244222377584268,-1.1733762207869622,-1.2512359046655752,-1.3162189221393552,1.0400390625,-0.46240234375,0.64306640625,0.75,1.25,-0.125
-2.3436820817357487,-2.1779185383960753,-1.501583584156744,-1.0159060543240037,-1.0391101730870131,-1.2838944340200757,-0.7451343372407324,0.30587667346159897,-1.2054106361804129,-1.258234510217776,-1.2864493590599906,0.859375,-0.115234375,-0.37353515625,-3.0625,-0.75,0.375
0.016988383899934373,-0.28994216599459244,-0.24218046179100539,-0.6793081342462126,-0.8919931034837445,-0.3897043278025431,-1.3098185461243086,-0.3039057607949576,-1.1776912709978755,-1.250706213151916,-1.3126975175111102,1.0078125,-0.48486328125,0.56298828125,1.25,0.8125,-0.1875
-3.8601274463459903,-1.1656602662542752,-0.531666310808944,-1.2762120984203034,-1.0178064583820072,0.39741786186342704,1.7747208022109455,0.7485298567395209,-1.199286421190015,-1.2571836303483854,-1.2927887904379902,0.912109375,-0.1064453125,-0.23291015625,-2.8125,-0.75,0.25
-3.1555088834484755,-1.4296977480225854,-1.3978506048179355,-1.708026534608879,-0.20518999489593875,-2.847955331064389,-4.237668274923123,-5.737145652346912,-1.1853394501826149,-1.25043652673157,-1.3050702346175571,0.94384765625,-0.5,0.36279296875,3.375,0.9375,0.0
-0.5859866053895149,-1.9277827022723806,-1.7765540335086174,-1.4497799905590694,-1.9662380584093166,-1.138020553556791,-3.063486567117001,-5.216428661862255,-1.1764882581294465,-1.248730163299152,-1.3149597788431262,1.029296875,-0.3154296875,0.236328125,-3.0625,3.0,1.625
-2.0716363669197304,-2.1386980911450872,-1.555680891936932,-0.8216658438085116,-0.5379648749048955,-1.6924856338304248,-2.9269014942158265,-3.8962250124269144,-1.1742224907927568,-1.248922410686963,-1.3171043463077357,0.9296875,-0.28759765625,0.1376953125,0.1875,0.5,-1.25
-0.5713625395641106,-1.1363312626880924,-1.434511061063787,-0.9472599447624751,-2.3367695878418506,-1.4729202818146865,-1.3112945116790793,1.9826791316144574,-1.1719143360912443,-1.2483846319657346,-1.3189295407569372,0.93994140625,-0.28857421875,0.13818359375,0.6875,1.0,0.1875
1.0331234759972379,0.1984598596626535,-0.5814104355615962,-0.26737894831577036,1.4935351209583465,0.10372253946147046,-0.06095348613341257,1.4117600377293495,-1.1714001957824678,-1.248126734023934,-1.318940093780132,0.94287109375,-0.28564453125,0.12890625,-0.125,0.875,0.6875
-0.6049195203462128,-1.7181338357803968,-1.8034354941956452,-1.9938295929116947,-4.936841209693445,-2.329661149090309,-0.8898133756492093,-1.5171904310238162,-1.1693081340774512,-1.248093089397082,-1.3216036911182958,0.9296875,-0.28271484375,0.13232421875,-0.625,1.4375,-0.125
-0.2668442761324227,-0.5380159783842168,0.011637495838704642,0.6065146956662225,5.512185732494368,1.059780724510283,0.15446126252344036,0.38561231191829226,-1.1673314644872508,-1.2472908031987495,-1.3236517493149396,0.93896484375,-0.30712890625,0.13818359375,-1.25,1.625,-0.25
-0.6784575209574649,-1.6454023185291295,-3.103907433717294,-3.8028965614646175,-17.853987684008196,-6.874515288576532,-2.792206273438412,-2.2078383566361732,-1.1678799298255784,-1.2468707860088597,-1.3228852712865804,0.9580078125,-0.33251953125,0.1162109375,1.5625,0.5,-0.9375
-2.051932322520722,-2.20403469937553,-2.6581819701057117,1.6570271002846906,-8.106471422212971,-2.022211186189565,-1.2556892257112453,-1.6503110559711738,-1.1653099910398588,-1.2473579582033407,-1.3231258616664308,0.96044921875,-0.31005859375,0.12060546875,8.1875,0.1875,-1.6875
-0.3484752077740759,0.28243505225495313,-4.235059499487574,-4.712199281442343,11.698459412009557,3.500328816588913,0.9603738487325839,1.4264430612632588,-1.1620403954246938,-1.2483713232099287,-1.3236216947689503,0.95166015625,-0.271484375,0.10986328125,7.8125,0.125,-1.8125
-1.453995036601889,-0.5257042164431754,2.0759404077861636,-3.910271583359802,-20.366912115906885,-7.56145684233035,-3.729028734660286,-2.343812051012086,-1.1617457394686417,-1.2492493326193597,-1.3232246763156348,0.951171875,-0.2626953125,0.11474609375,1.8125,-0.5,-0.25
0.6868658757300551,-1.2340268597557336,-0.3988978973528874,5.461435996697393,14.873779726861798,2.567021651126019,0.9849293100539189,0.8725365470454706,-1.1619161403048799,-1.2489014499869713,-1.3232212565210428,0.9482421875,-0.28076171875,0.12744140625,-0.75,0.1875,1.375
-1.4108820224290188,-2.1408505038635717,-2.10913113247654,1.314954179097886,2.1642367594983596,5.561959728684735,-4.541697191854786,-1.0680229289440506,-1.1606379757597185,-1.2481944329494652,-1.3243562974955574,0.943359375,-0.28173828125,0.1357421875,-0.375,1.0,1.5625
-0.2967325820898352,-1.4521922109299141,2.6577466089064137,-8.083342312829588,-3.64779320238912,-4.5867970329000745,-1.3200072218375956,-2.6963854990390796,-1.1591378497505629,-1.2480238372312662,-1.3269366687392323,0.94677734375,-0.28466796875,0.13720703125,-1.3125,1.5625,0.6875
-1.1337969537788304,-2.32610201659224,1.595447296050762,6.418082360754704,1.0325199194675356,6.698334002614564,6.430330028423906,-1.036534709884188,-1.1553420715082423,-1.249341477253446,-1.333045417394535,0.96630859375,-0.23193359375,0.126953125,-6.3125,3.6875,-1.5
0.5401692906745984,1.7067555975690958,0.9537115202754034,3.10596056061405,7.377509488406823,-6.602727494779856,-1.5377157565682167,-1.5976047482224522,-1.1487642439021508,-1.2496552620421255,-1.3500264462781475,0.955078125,-0.18212890625,0.23046875,-31.0,6.9375,-0.1875
-0.8340694988104718,1.4828538333654417,-1.774126773200558,-3.789157992152504,2.5971555808996745,4.977676694495998,8.48471644944153,-5.700485196752838,-1.1664732459629328,-1.2491679138218943,-1.3588634544071723,1.03369140625,-0.283203125,0.17626953125,-77.125,4.9375,-0.25
-7.529669395818769,-6.269328366970923,-4.014110054898085,2.793118555742519,17.427239100910366,9.861740318410067,-7.047425857517048,-0.9596651849063103,-1.1675875361285344,-1.2474055256806058,-1.3981369282403011,1.197265625,-0.45361328125,0.3515625,-109.0,31.75,-9.6875
0.5363044312914822,-2.1242976105075657,-5.663681370955342,-9.27879984822353,-15.571958222512464,-4.060867164283388,-4.418208960171249,5.5391835064994295,-1.1449486831194564,-1.2336870762735601,-1.464328235372465,0.9228515625,-0.43115234375,0.5185546875,-116.4375,65.8125,8.75
-1.436946483298936,-3.0299087753145706,-1.398745002615685,-4.3832373709786685,0.9920313641476081,-2.361800164685593,-5.257892951479021,-3.307082156169747,-1.1342479350882442,-1.2022980212406966,-1.5226515500475024,0.93896484375,-0.58203125,0.52587890625,-127.8125,83.875,53.5625
-0.10027815090315667,-0.43869790353203886,3.752669814959326,3.562771440996487,-31.428802353356108,-2.8336719900808816,1.6419361039424707,1.2422708971968641,-1.1322282080702482,-1.1510948435799109,-1.5742377076796936,1.07666015625,-0.7734375,0.58642578125,-131.8125,107.25,103.8125
1.1500733451834422,2.9364708315176378,0.8391081587627885,-0.5422793146338489,12.137922216971893,-6.111176991355003,1.7193839799981867,2.261286863424444,-1.1380191803695456,-1.0791890829536024,-1.6184899172614584,1.1201171875,-0.875,0.56494140625,-132.625,132.4375,157.875
-0.4898695878262447,-1.830656042443164,-5.991090789957933,-7.838898522335966,-21.450676911007722,-5.716086995898142,-3.6783179557385344,-2.660742006291966,-1.1453669542496352,-0.9885588907423952,-1.6574904478693928,1.01171875,-1.0537109375,0.61376953125,-118.125,155.125,206.4375
1.7363140215439454,4.34597080437677,0.27414042114934956,4.9247004326811465,-8.600883535292642,-4.979109286751338,-2.886217371975433,-2.705475749255698,-1.1549009418473568,-0.8841924301017055,-1.687651891686506,0.974609375,-1.22998046875,0.5458984375,-96.375,165.6875,245.75
-1.437546964533123,-2.24327063313967,-4.5135760426578395,-3.830461255661779,-3.409622340175962,1.3246400212923666,-0.8973081049734899,-1.9519376289156862,-1.156495952370707,-0.7650603855340194,-1.7079764668119124,0.99853515625,-1.365234375,0.5302734375,-47.0625,172.875,291.5625
0.03632521721322104,-4.089409513310139,5.306086862381909,0.03280602720707273,-8.023570865669333,-4.895471147884527,-0.7189508844837034,-0.5452529566097682,-1.1438763270294623,-0.6308234081243216,-1.7184076532787598,1.01220703125,-1.40185546875,0.46484375,19.125,179.25,340.9375
-5.659745685258228,-4.336430798949612,-7.961960754853993,-3.4551485908586876,4.190221285162685,3.0288452685768132,-2.618795387634579,-2.5426178152378673,-1.128477793000203,-0.48454452822568395,-1.718408667408456,0.9228515625,-1.3837890625,0.408203125,47.25,179.875,382.125
-4.977719939275484,-12.398532119793733,-6.115198340914585,-3.0153921230052725,-1.754750841956375,-2.8583639083127683,-1.706310310693893,-1.6331343336455137,-1.1127741107370048,-0.3277809431554965,-1.7075142995687334,0.75439453125,-1.37939453125,0.39111328125,61.375,173.25,421.125
2.62474265620886,6.384872776305691,1.646203794907203,5.673288719197981,2.610722030937368,-0.551148556404436,1.3191349449427316,0.36365161495997095,-1.0933210864481897,-0.16166066577120305,-1.6888566887161371,0.505859375,-1.31591796875,0.3916015625,73.125,171.9375,453.25
-0.13521034522567993,6.234728581228208,-0.7657645961953436,-3.7055939893630576,-2.58932702087634,-1.7043098869206572,-1.9578039123814193,-1.2583767135798347,-1.0701250890503875,0.009568606299098982,-1.6616317498339048,0.21728515625,-1.18505859375,0.39990234375,76.0,164.3125,474.1875
-1.4085618752180886,-1.799177852252455,-2.895297213837611,-5.529979434310006,-4.894486118842179,-3.360462869785752,-2.054092008595643,-3.854435374440597,-1.039201540480196,0.17888553943805904,-1.6249748913532365,-0.02734375,-1.05615234375,0.36181640625,82.5625,149.3125,477.5
-0.966230702971402,-1.025074539672102,-0.8097136549531456,-0.7046284173314236,-0.0453935779424876,-0.5746978824383515,-0.2560905692626493,-0.7169476310854733,-1.2070201706832229,-1.205227026202251,-1.2811446181591937,0.9345703125,-0.3251953125,0.1220703125,0.6875,-0.0625,-0.3125
1.6244223186493787,-0.7298234254440866,-2.170458918839213,-0.9142529834354207,-0.34762651056519195,-0.6524148045876941,-1.058850954948159,-1.0591745734552582,-1.2070201706832229,-1.205227026202251,-1.2811446181591937,0.94677734375,-0.3251953125,0.11865234375,0.25,-0.0625,-0.25
-3.072455341938042,-1.1147755815288751,-1.8298438879112835,-1.2308804967747289,-2.4178860918448244,-1.1699987161923195,-1.3002903770056828,-1.0634004334975031,-1.1829495744893452,-1.2021732152378148,-1.3046034006398044,1.2177734375,-0.3916015625,0.53662109375,-3.25,1.8125,2.0
-0.9762865642343577,-2.798009925748948,-2.299811862774302,-2.5970007431238997,1.1091854953920826,-0.929408755260844,-1.4011345557587116,-1.705147378830682,-1.1802241670761453,-1.2028681334877305,-1.307292701839583,1.0625,-0.21630859375,0.26318359375,0.1875,0.375,-0.0625
-0.6840699843725956,0.15280850569032225,-0.07977553869767653,5.740124133926487,9.168889066036868,1.9304229036533596,-0.3417111856188081,0.7531319342656312,-1.1516134996968597,-1.1959512201462794,-1.3335131809382814,1.0361328125,-0.486328125,0.66015625,1.875,0.5625,0.125
-0.8061319951246456,-1.403883453267667,-2.211173496913924,2.511879306990568,3.360682052022569,-1.6311134430616854,-2.315595488849015,-3.1736189539087607,-1.1862103123771806,-1.2032959346291192,-1.3011078728569707,0.8076171875,-0.18994140625,-0.46630859375,-0.125,-1.3125,-0.0625
-1.7782372575374492,-1.0351784737210643,-0.7024645355834837,-3.9962620370264768,-8.012349914373717,-3.582629643990744,-0.18829216484604425,0.44822211112125715,-1.1556035773277833,-1.1965476317416766,-1.3289330153662793,1.04296875,-0.48193359375,0.67529296875,2.5,0.6875,-0.25
-0.6561695144482357,0.19277778927489062,0.11566903318204655,0.37879811697194565,1.6709602087365065,-0.8974435871670482,0.3375266754405609,1.9435952395615574,-1.1834622902182772,-1.2037759500861331,-1.3027744767430764,0.85693359375,-0.16650390625,-0.365234375,-0.25,-1.125,0.25
-0.0657435425603524,-0.209100344343807,0.013681758220832299,0.5437244152392842,-0.03469825227109457,-2.56900894992434,-2.124372263851137,1.2519972473592695,-1.1626371262773378,-1.1971286010402915,-1.320941798205115,0.978515625,-0.4921875,0.509765625,3.0,0.9375,0.25
-2.3858999357051727,-1.897585041198741,-4.654977776803177,-6.074355457754121,-2.4211570914132228,-0.2952474668401676,-4.058065187978156,-3.5680094197947243,-1.175158839727015,-1.2039938385696582,-1.3115981724962709,0.9482421875,-0.11767578125,-0.12890625,-5.125,1.0625,1.0625
0.42155486930972963,-1.48829183973929,2.2012475959339612,2.03771913270778,0.6155212934181358,-2.778830934616113,1.7715992325845682,-1.7720560313041531,-1.1769948558811207,-1.1991710355590242,-1.3121484363362543,0.8642578125,-0.46044921875,0.1552734375,-6.0,4.0625,2.5625
-2.5080140999309446,-1.4386450843600727,-1.0840374081221023,5.004956211243447,12.520894109472227,1.6438032141944745,-1.4511249403052018,-1.4002714253255615,-1.1656595554048157,-1.2019762960982203,-1.3325589312138637,1.1103515625,-0.06103515625,0.31396484375,-29.0625,6.75,6.1875
-2.3252861936661087,-0.7321554066305022,-1.3980678031939089,-4.068488909171299,-2.1356280667805434,1.0074782149438037,-1.5164059977350428,-8.049376249726476,-1.1693489096602867,-1.199214638010652,-1.3486647027790812,0.935546875,-0.1357421875,0.1259765625,-55.8125,19.8125,13.375
-0.8506463182728276,-1.5639721395563346,-2.508916258132761,-3.460616814897351,-10.70297663654641,-0.0438762217228888,-2.0812298317597833,0.7080474184490333,-1.1745822284286802,-1.1875511856536929,-1.3780597562099353,1.12548828125,-0.34716796875,0.240234375,-95.1875,37.3125,23.5625
3.700372597049347,1.3288836368732935,0.9567357036368929,-0.9427702707680575,-11.681912468996263,12.144678328106068,7.387949415883142,3.366298994018703,-1.1811272826493089,-1.1678089346816862,-1.414630070187042,1.06201171875,-0.390625,0.29833984375,-116.0625,56.625,37.5625
-1.6527928165978147,-1.375426897119391,-1.3297857918476585,1.414151581266958,9.2747032316569,-0.3038540265057147,0.24521039896078722,-1.5009690625250696,-1.1894792655467823,-1.1367272211042383,-1.4568821624728574,0.9912109375,-0.53173828125,0.38818359375,-135.625,75.5,62.75
-2.649200805570251,-2.2248729882880407,-3.2738024740716254,-6.857565565579681,-24.163080401110044,-21.164871279215433,-9.546830035347554,-5.310293212600924,-1.1992496786100248,-1.092090871025695,-1.4956558374838254,0.99462890625,-0.7578125,0.42724609375,-128.875,88.75,96.6875
-1.9448402776985674,0.08836156198926659,0.3917920720905267,0.37210380286303796,-6.033595232280301,-6.158683318180199,2.901821056627609,3.136894131584723,-1.196736222416565,-1.033915072942907,-1.5309344619030902,1.0029296875,-0.94091796875,0.50390625,-82.0625,101.875,131.6875
0.005664225255419904,-1.3337979988235085,-3.681687647379997,-3.286276918961458,-2.224454715080155,1.8147035971834962,-1.064438911148709,1.4744865963897218,-1.1819502509033972,-0.9626963124797168,-1.5637283199880485,1.02001953125,-0.95654296875,0.5146484375,-37.875,119.9375,166.25
-2.9674854855920723,-2.846788661838763,-3.1834384681970445,2.6402988356681525,6.262847828231422,0.4471817819282459,-3.50442359563334,-2.443638497554914,-1.1654790637239745,-0.8788938110773585,-1.5954167956456835,0.943359375,-0.9794921875,0.51220703125,-25.8125,140.6875,196.8125
-1.7309667148172105,-3.4683171512240003,1.9436637385639237,-4.193265910114505,-12.585015402737154,-4.521920878903914,-2.3473308354598554,-5.014734720842511,-1.153865585581543,-0.7822652579776016,-1.6219596098964817,0.85595703125,-1.1376953125,0.509765625,-23.5625,155.9375,229.0
-2.0730458149831095,-3.1699382894086803,0.7517163752692131,1.306098006475334,5.569938155638219,0.21482977878869727,0.3423550217188033,-1.1932485927605572,-1.142702565635887,-0.6730495563419939,-1.643804770638437,0.7939453125,-1.2509765625,0.53955078125,-8.875,169.25,262.8125
-0.4164804747359343,-0.1724618850050345,-3.805748569886514,-5.739130311061431,-1.8060628595934871,0.9204775324049507,-1.8935998625449915,-2.8098868969014887,-1.1299749399489396,-0.5505108708346375,-1.6603171450364769,0.72509765625,-1.35107421875,0.5361328125,10.25,183.3125,299.875
1.886653398353905,1.5284208730259068,-6.0169555258689815,-6.740116006714398,-5.072072095266173,-0.6110087421270477,-2.9815535023135364,2.278545096030347,-1.1147691528867365,-0.4138353841957903,-1.6696768573910143,0.60107421875,-1.40625,0.58837890625,32.6875,191.375,341.6875
2.9203337573506905,0.7716302186544436,-8.763977748116567,-2.7618004647397183,-2.383021619731997,-2.4003248447808945,-0.48728565877342245,2.658142129780444,-1.094192538015821,-0.2648894355021373,-1.6680796954233104,0.38330078125,-1.39306640625,0.5654296875,62.5,189.0625,383.125
-3.005692766035355,0.5484112288075312,6.195955361955132,1.9808690255880497,-1.9498843898735194,-3.0459101323454987,-2.684746024453481,-4.38701487036045,-1.0662628968766643,-0.10863270255816727,-1.6595198157496365,0.16064453125,-1.2763671875,0.521484375,87.625,190.1875,407.125
-0.7384186165910047,1.0711066823711426,-0.16418104523780444,-3.433734224096664,3.0242946034050573,0.09848748780181735,1.479587631224578,0.10735166911285272,-1.035021855531895,0.052428501129296916,-1.6438652320970943,0.02392578125,-1.138671875,0.5205078125,92.625,191.6875,424.875
-2.9416052503200305,-1.7787237707739274,-0.4588292892646777,6.029893292283312,4.221052053113751,1.4271097804461126,1.265232356132369,-2.171826123824172,-1.0006962115385878,0.21440775159313508,-1.6224247056909804,-0.107421875,-1.04296875,0.498046875,92.6875,193.375,430.0
-3.3145030487164386,-2.3979883038221104,2.095773822724196,-0.1845886136172738,-5.325733950229446,-1.5396321278502347,-1.9551326401826201,-1.4500805176736928,-0.957399754120643,0.3710710778721955,-1.5945190910913412,-0.3671875,-0.93798828125,0.4296875,104.0625,186.625,417.25
-0.663299556143431,-1.8603573161197293,-2.4970056910070246,1.9599577923289055,6.476372212404605,-0.23952704037455264,-1.4748556295947215,-0.8009485462346776,-0.9054159083408246,0.5148049619683411,-1.5571042217849953,-0.4111328125,-0.8515625,0.38720703125,106.3125,167.75,391.0625
0.666646584985244,-0.12928736537872768,-3.042679419793069,4.87501187643784,7.865068711231318,2.1445615712147066,-1.8038640816844664,-2.44198196247925,-0.8489429355690336,0.644771639864193,-1.5090779130399832,-0.28759765625,-0.787109375,0.36181640625,89.6875,151.0625,365.5
-0.6211834390692218,-0.5636481708354585,3.896609139515811,-2.4357998138271704,-2.904339523571605,2.3389664868029603,-1.1279256762585734,-0.5970142065795172,-0.7812466570584,0.7614465790539406,-1.4528043368705992,-0.23193359375,-0.7392578125,0.33203125,93.25,141.4375,334.8125
-5.110655107969598,-4.1854975847425555,-4.237134711811491,-7.591265926112153,-13.271310639995441,-6.904642149636938,-3.293483891611172,-3.613099834296784,-0.6993579126455028,0.8621508198292458,-1.3823034589682492,-0.2177734375,-0.6259765625,0.25927734375,91.3125,120.875,304.0625
-3.490737209045274,-2.453296739061098,-2.206183376498569,3.6993633096059835,2.088786701789323,-0.3852909136380009,0.468858118258898,1.405116099664466,-0.6080689094925089,0.943375435565536,-1.2992840960866074,-0.21435546875,-0.54052734375,0.26318359375,77.5,97.0625,264.8125
1.5304334989431498,0.23203062994360832,1.329707015810682,1.7423834724049896,0.1911586323628044,2.1041998763902567,-1.3258892972929717,0.6946188986924711,-0.5065503886498784,1.0049476727111657,-1.202995624391876,-0.111328125,-0.439453125,0.23388671875,65.125,70.3125,231.0
5.854244547799836,0.8916056286106044,-1.735929444045164,-8.161287761133565,-7.579276422946769,-3.4478132264468297,-3.0137805002026155,0.4193415022700284,-0.4036794835577235,1.0484096910032832,-1.1036574238029389,-0.1513671875,-0.263671875,0.20751953125,52.1875,48.6875,190.25
-0.34295797918002885,-0.5415507333791979,-3.283591360969742,-2.484455968250161,-5.022500732441914,-5.225320279447513,-1.3564625503234768,-1.75046472205167,-0.30327332324314105,1.076150832803032,-1.0021168859871517,-0.197265625,-0.14013671875,0.23974609375,33.8125,27.0625,162.0
-0.13634926605929248,-0.8693172252389725,-4.785713522505749,-5.4543653330749065,-2.8872175991412985,-0.07416756687346751,-1.0898809027863792,-1.2499597670794307,-0.2173357005450684,1.0883433927775497,-0.9110167692677404,-0.21875,-0.08837890625,0.2470703125,16.25,4.9375,128.3125
-7.008510568873343,-4.596784858330543,-2.191725249642365,-3.096710559035927,-4.753921497979745,-2.4686402034671255,-1.2722588241853665,-2.2502337655441718,-0.16012799962987495,1.0907427422801144,-0.8463767502776842,-0.2880859375,-0.11474609375,0.25341796875,1.4375,-3.0625,91.0
-0.7775705946588793,1.4368462917352642,6.098485834715961,3.28100617422852,-0.15576505488856673,-0.7984221192593786,-0.8540614300169489,-6.088635474987944,-0.11963965456692685,1.091769125717234,-0.8008278299606993,-0.3427734375,-0.06103515625,0.28662109375,1.0,1.1875,62.625
-1.9170059876449121,0.03575493968318344,-4.575494190387325,-1.9754711149146964,1.5577410611677496,-1.2584573839526163,-0.8400177126781313,0.7540567713295437,-0.08788737324827324,1.0930572413375677,-0.7638919462376024,-0.34326171875,0.041015625,0.318359375,-5.0,7.6875,45.3125
-0.6148745778724491,-0.4084092952133983,-0.3465572082598589,-0.4917472615542648,0.17210564504537892,0.6915433905226891,-1.9776538256903078,-0.11946174113653264,-1.0811032377832148,-1.18695475488815,-1.27835386583592,0.9296875,-0.32763671875,0.1708984375,1.75,-0.125,0.0625
-1.4723129710212381,-1.7469226070776716,-2.4680222745496536,-1.2480225310884419,-0.7621750888169601,-2.5476590712516405,-4.676695544667467,0.0012458914554467882,-1.0811687886165988,-1.187052294528044,-1.2780134807643706,0.9287109375,-0.33056640625,0.16455078125,1.0,-0.0625,0.1875
-0.602926976862731,-0.874825454086619,-0.4739301722173016,-1.505177236604459,-1.7135394221783065,-0.3442645556696382,0.9564842672101784,-1.420896937187719,-1.0767625786162016,-1.1867593286395697,-1.2821558696148148,0.98583984375,-0.3271484375,0.23779296875,-0.4375,1.125,-0.5
-0.7668754575198444,-0.8221531573963392,-2.8843152145044075,-2.7599196231805525,-3.9821152317327737,-1.1560438412328702,-0.8982763224407628,-1.4666715978873388,-1.05367483652009,-1.1819823555359212,-1.3037521657305398,1.21435546875,-0.451171875,0.6884765625,-0.8125,-2.125,-0.25
-1.6713590445936086,-2.3901584561838596,-2.6658974290681727,-3.0703357825932764,-6.846495726290577,-0.9452108206102625,-2.0032197764059414,-2.212526291870435,-1.0185304811305336,-1.1737884656662572,-1.3356186693940628,1.1328125,-0.4345703125,0.8818359375,1.6875,0.5,0.25
-0.050917194780981015,1.4139948305598504,1.0359522593987145,1.5246271535833817,6.022474457209331,-1.034136496684856,0.11009542090458711,0.3152601642839417,-1.0555519271971134,-1.17985444118297,-1.3006643486707277,0.69580078125,-0.326171875,-0.4892578125,2.5,-1.3125,-0.125
-1.3925048625936245,-2.5635171993326797,-0.0056710528179808395,-0.8565404123255834,-9.605685636698848,-2.946463441229307,-2.050507549643303,-1.7696159834629623,-1.0211853375338755,-1.1750881541186513,-1.3333601387252676,1.1572265625,-0.31298828125,0.81689453125,-2.0,1.0625,0.4375
-1.3770237293997452,-1.9091413544246574,-0.9994343222140338,0.17341598745412184,4.752816475627962,-2.4227314046900927,-1.1705537288799097,-1.0684721697534874,-1.0302277968050435,-1.176474797213089,-1.3248529346356197,0.69775390625,-0.3203125,-0.5048828125,0.5625,-0.8125,-0.5
0.07402823437552741,1.3376199904411439,-2.195283305559962,-1.472388203848926,1.0286811964622689,5.99185699886787,-0.47066591410446224,0.20251736462628342,-0.9955975134623084,-1.1698432975691944,-1.3578833782582542,1.146484375,-0.361328125,0.86962890625,-3.0,1.4375,-0.25
-0.9012260583637158,-1.1285648689718963,-2.186838194102515,-3.4318858702159756,-9.666047249921624,-2.4539700371673376,1.0364451019076932,-1.539477682084898,-1.004860373587922,-1.1717888668354344,-1.3490932097107733,0.720703125,-0.2744140625,-0.54052734375,-0.4375,-1.0,-0.5625
-1.7753986447181844,-1.6225048250750524,-1.3813371617205217,-3.1904262066026523,-8.228896094068114,-0.44781588378598247,-1.1987268944861287,-1.7715303766247683,-0.9734075870320408,-1.1641896239984677,-1.3793472089168617,1.125,-0.4033203125,0.86572265625,-2.0,1.75,-0.125
0.38209580791488523,-1.8762166714406567,-1.33201214510755,-4.493473390332948,-5.7410819807336635,-6.488081897495583,-6.730354606822377,-4.234061072956729,-1.006101245908859,-1.1741926359542263,-1.3518077706308929,0.771484375,-0.16943359375,-0.494140625,-7.75,1.25,-0.375
0.7380404417612831,0.2531709247593512,0.4102778761661006,0.5407988928392302,9.100976348231857,5.351331578001754,1.4526406164624788,0.4989274347363541,-0.987082508378758,-1.1688187576295388,-1.375176374571645,1.20556640625,-0.39111328125,0.67578125,-16.375,4.5625,1.25
-5.303859592734355,-3.89209282553806,-2.698762864933123,-0.6659932141164113,-8.779159836849791,-9.66278426360178,-5.506495573094447,-6.5175607944987926,-0.9917335482331564,-1.1678102265770665,-1.3772710751273358,0.87890625,-0.29150390625,0.21142578125,-20.5625,3.125,2.0
-2.78777391462922,-0.4999227359255676,-2.356652727474931,-6.809912771579956,-16.718914589615018,-9.598166577073634,1.5788658807917915,0.5795118064017073,-0.992056885312502,-1.1634488670912393,-1.3921781512587283,1.05517578125,-0.263671875,0.2744140625,-42.5625,19.1875,8.875
0.6267231467614719,0.32452334646463765,2.0550836665523473,6.748104655586927,-0.7919021913588421,11.806152646658564,3.6628868691511753,3.200633750891559,-0.9875963138538618,-1.1506481469926269,-1.4241860358721787,1.0595703125,-0.265625,0.36767578125,-75.625,44.0,18.75
-2.404284187856104,-1.514196483706064,-0.1494475921111804,3.8890132213059605,13.309091331952054,-1.2759223836747258,-1.5749311495701481,-1.9800687815595157,-0.997746428568808,-1.1259631618423829,-1.454861114971986,1.05078125,-0.38134765625,0.462890625,-109.4375,66.4375,40.4375
0.6030282749981125,0.22399089890202104,2.794248608881109,0.9146176887596577,5.880423732436021,6.583007372988311,0.4377945826336118,-0.3098472361398119,-1.010232838796272,-1.0901326971328065,-1.4861941248897153,1.07568359375,-0.56640625,0.55126953125,-117.5,85.0625,63.625
-0.5242569475325152,-1.8334059343934475,-4.082968331770733,-8.15068790403041,-21.501486040244185,-11.73155477374724,-3.7372068081588665,-0.46461256812748697,-1.014433646683409,-1.0420131459023352,-1.5182406298132471,1.095703125,-0.71484375,0.5810546875,-93.75,106.75,90.9375
-1.795330184913708,-2.0109174416469524,-5.33214708189915,1.25970766518024,8.069834203724438,4.5868792053323855,-2.1565495953489164,-0.6888887779680413,-1.013537149309341,-0.979598979499238,-1.5507732227567552,1.0693359375,-0.7607421875,0.59619140625,-77.8125,133.5,123.125
-3.000030591337876,-3.5216870370028817,-1.20128981994935,-3.5012754270030553,3.225337019460524,-3.4454733909404496,-3.6908452912335954,-1.8947120719879698,-1.0173409589534748,-0.9000446597777632,-1.5800730083298085,1.01904296875,-0.91552734375,0.62890625,-79.4375,159.5,164.625
1.0481563695479683,3.3443886853320497,5.652437822736022,9.701429400100146,12.306204910811303,3.9134273832507853,3.2161085129704556,0.10015510420939346,-1.0204133480208892,-0.806249070786578,-1.6060926842635972,0.8642578125,-1.0849609375,0.65087890625,-64.5,180.0,198.9375
1.9325244550440206,2.671247064455146,4.89005573336199,3.675727751373282,-2.521566493574509,-3.3652139714799083,4.100033833560652,0.4054286506565801,-1.0170908953076565,-0.6996938468635914,-1.6286899249414009,0.75830078125,-1.18017578125,0.65576171875,-34.0625,198.5,230.6875
-1.4973317626647595,-1.4403135269917822,-5.0010745496664315,-7.322682174785329,-6.5156025490264415,-1.291914826809596,-3.739183156723359,0.2691330831200721,-1.0089094007431842,-0.5830485649316197,-1.6469905743499522,0.66845703125,-1.19775390625,0.6123046875,-6.3125,212.0625,258.4375
-1.5430725378520387,-1.1112522474495117,0.45699812779348,-1.8438559610190501,2.2211892254702774,2.479879202324634,-1.8965481429335178,-2.018798742377033,-0.99684503021602,-0.4562313728378405,-1.6596009080906833,0.5986328125,-1.2431640625,0.5986328125,19.5,222.5,288.0
1.3435595464031422,0.8711006902185091,-3.643796532641639,-3.3393839038776463,-8.240886890998546,-6.073926888213006,-2.5663052936875137,-1.0817451027061227,-0.9810319032044392,-0.3212733974021036,-1.665178645979681,0.501953125,-1.2314453125,0.5810546875,42.3125,226.75,315.125
0.7954802256454919,-3.750888036421337,-1.340589061168132,-7.362142105263464,-8.20460105653203,-2.1144086970223595,-0.1846031372513131,4.06055972555938,-0.9618804503336984,-0.181736653060392,-1.6641625813640764,0.34619140625,-1.162109375,0.55615234375,59.1875,225.375,333.375
-3.503480156043132,-2.4805533832373143,1.2030541755855892,1.4760330985832737,0.7497850745105208,1.1993858913972746,0.042660511346305316,-0.16109040335849578,-0.9408877137200188,-0.03848721976196754,-1.6564162039927157,0.2509765625,-1.09326171875,0.52587890625,66.4375,223.0,350.375
-6.524052924510439,-2.2097855342157207,3.558215611368822,4.123361288903577,2.1030912078597,-0.36274575319953417,-0.4648276244847635,-4.207524177401498,-0.917170783267516,0.10617189344332922,-1.6417839332896822,0.1083984375,-1.00244140625,0.5048828125,69.9375,217.1875,360.6875
0.30843571299732236,0.21996948700486665,-1.4343179245417639,-0.3047465354999879,-7.103353290468044,-1.356384798431957,-0.26479610567698475,-2.4727309299883053,-0.8902327201407759,0.2479835170557968,-1.6200369806779191,-0.06689453125,-0.9208984375,0.45654296875,69.8125,204.75,360.75
-0.9365178495266745,-0.8518886572722647,1.493028688529337,-2.800770024954545,-4.669832656664529,-3.2679612407983494,-2.9606245507148503,-1.5088762364551773,-0.8561387649185794,0.3834918512973939,-1.5905326301083682,-0.19873046875,-0.849609375,0.40771484375,75.4375,188.9375,352.8125
-3.6812034551302024,-5.112815136203272,-4.73621318954869,-2.620835119855096,-1.172572870209998,-0.7400465672661983,-0.4813472918797077,-2.3238038074181753,-0.8165939936728055,0.5073185018928723,-1.556605374185325,-0.27294921875,-0.77734375,0.3779296875,75.4375,173.1875,325.9375
0.6103254672398526,0.3658230475844028,-4.827008267988078,-0.2742008151328285,1.6652092083123324,-2.093407060052335,-2.8822751654088665,-1.7570509685543494,-0.7705181993807991,0.6205247273978733,-1.5179525264909506,-0.26416015625,-0.6806640625,0.34326171875,76.1875,161.6875,301.3125
-0.5029799556826293,-2.3750306746603718,-6.661721491013571,-3.6425822874363716,0.5741089733111088,1.2918029647635692,-0.4241740335313126,-1.1601847022409975,-0.7190198743918079,0.7230989631631186,-1.4718023848663395,-0.30078125,-0.6220703125,0.29345703125,68.875,146.5,280.0
-1.0291632960563961,-0.2828570872462351,2.4056010189782002,-1.6030285166988167,-6.899899916126874,-3.321578083080919,-3.0789129977246468,-1.5466736109539585,-0.6620542346746195,0.8132965658576425,-1.4155471965218442,-0.2841796875,-0.515625,0.28857421875,53.75,126.25,258.3125
1.8264741246902672,3.462273326820735,-3.2661608836755027,1.1745669102332443,5.454173903943455,2.815885960118892,0.43984315628626125,1.6813969114514373,-0.5974134796056035,0.8927876298526393,-1.3494622040078266,-0.2919921875,-0.41943359375,0.32763671875,44.1875,112.375,238.75
-2.112048551287574,-1.3456680264603387,-6.958812094495762,-4.658957821887605,-5.3223899567899755,-4.507838184909626,-2.6780308179979135,-3.82986711398826,-0.5261216096822192,0.959674416856406,-1.2763872502537723,-0.32421875,-0.36279296875,0.31494140625,38.1875,97.0625,212.125
-0.7424816800444345,-2.0851693544400844,0.629142378658475,1.8275721767692776,-0.6727169940138269,-1.206385593953783,-1.5323789690003429,-3.8206455487683173,-0.4465577818933961,1.01295375132079,-1.1962518469638368,-0.3505859375,-0.28125,0.32666015625,37.3125,77.25,186.0
-0.9954604565134108,-1.2189856628434865,3.2447438525020242,-2.1633450630992535,1.0807526618147152,-0.21421309519935658,0.8199600384965837,0.43916029759510283,-0.36030082620251397,1.0517132596074703,-1.1101901867300432,-0.357421875,-0.18701171875,0.28125,36.375,54.1875,161.4375
0.1608140275320561,-1.7546161162421083,-2.9913739456282085,-0.8938490480908876,-0.27627249485579275,-0.8012653152130589,-0.7127758425712685,0.2628919168759153,-0.280127129028262,1.0791026742942007,-1.0279943822569906,-0.4345703125,-0.1142578125,0.298828125,23.375,39.1875,133.875
0.6950433655993857,0.3683798336497976,-4.7657014250355445,-2.7896982138420556,-3.446478020867948,-2.4156949463372057,-2.041512321875168,0.6151548502258408,-0.20555778007017966,1.0965594728391534,-0.9469090317906268,-0.44140625,-0.05029296875,0.3203125,7.875,24.25,116.75
-5.152343357984989,-6.3356570681295254,2.78578774421816,3.8926929723746593,1.7514587701811168,1.889878957639226,1.151490216230809,-0.13452108710642569,-0.145074026211934,1.1037522196260667,-0.8775743774678292,-0.53466796875,-0.0498046875,0.3173828125,-3.8125,7.75,92.875
-0.18470282219844442,0.7191844293449551,-1.5905977581744932,-1.3736923172491684,-3.2212337701993445,-1.077878672936492,-1.0565456573769885,-1.2839893092396653,-0.1037848521420586,1.1048485876262448,-0.8252932299762327,-0.55712890625,-0.05322265625,0.29296875,-14.9375,-4.375,68.625
2.061970531816104,-0.12659739049109042,-1.790877062401066,3.935937768081067,9.372829531503893,1.656877133772427,-0.2252924129966275,-0.4939696499846944,-0.0804398236880658,1.1030310573113986,-0.7897472506830459,-0.587890625,-0.04833984375,0.3046875,-23.375,-9.0625,46.875
0.5421447316518141,0.3643574334379392,1.5479513766167232,0.4315215018753566,1.6549914356368807,-0.7910469785398554,-1.9240424483991059,-1.5553229533928938,-1.4617361166856293,-1.224516087028748,-1.5726199837987196,0.94091796875,-0.3388671875,0.0283203125,1.1875,1.625,-1.625
-2.9791872366926055,-2.7405361970572306,4.875558033564773,-2.297696704151322,3.2714304384091393,0.32468557472069354,3.7043118352974864,-1.307851105056947,-1.4605442368961228,-1.2248986081647035,-1.5740176634299003,0.94482421875,-0.33984375,0.03369140625,0.4375,1.25,-0.8125
-0.5773063672778732,-5.66985188740727,4.366882344237243,1.0417489309607852,1.334229935235878,-0.7195913579874899,-5.4233310970089414,-0.10865702603959365,-1.4587247485442325,-1.2251109973805667,-1.5767955478683542,1.05908203125,-0.3525390625,0.0615234375,-2.6875,1.375,0.8125
-0.5785061476843215,-4.853528458054362,3.4750270645194052,-1.8411006789393543,2.268872825415175,-2.4461286279969205,-1.2167446305747307,-1.432962240356012,-1.4324650235816008,-1.221399932111598,-1.6020881105749207,1.1650390625,-0.51708984375,0.44921875,-1.8125,-0.25,0.8125
-0.5595270820611644,-3.274388645659926,4.771416672607609,0.5773674795278136,2.9675055831626,-0.7254030382332145,-2.628907216865894,0.07350439197723607,-1.4352231457008635,-1.2158146456268952,-1.5982945267184527,0.84521484375,-0.552734375,0.0166015625,3.375,0.125,0.3125
1.2787329941080665,5.75522597754666,0.3008817005067053,-3.692403912783005,0.8712299254769382,1.2235454434050443,6.3682018047821325,-1.298570455799863,-1.4469719254125473,-1.2210518481985455,-1.5870400709477697,0.9443359375,-0.14111328125,-0.1513671875,1.0,-0.375,0.125
-3.4013985045168007,-7.606686581116335,-2.150115501484915,4.194277627101522,-1.6231266100341137,-6.709430058213919,-17.07108649188647,-5.2299580056418415,-1.4347776167018178,-1.2160141613477304,-1.5964653038864083,0.9248046875,-0.54638671875,0.21484375,5.75,0.0,-0.875
-1.2710996451855319,3.022606576280734,-2.8959693511152955,-3.7830612308987925,1.8104137572072578,10.81738424413773,13.856314234928307,3.8917757706820773,-1.4395759090435625,-1.2218165426751373,-1.5918985172489626,0.98779296875,-0.125,-0.05322265625,1.0,-0.1875,-0.25
-1.4877946023781412,-2.5295812202532386,1.7316565158689017,1.0788405217170562,-5.457774045362503,-9.5655427145479,-10.358954837169028,-4.515023516592188,-1.4401805764893063,-1.2168555391268838,-1.589959460380596,0.85498046875,-0.51904296875,0.03271484375,3.4375,0.625,0.125
-1.779495234987482,-2.489269589609557,-6.830017146359866,-1.5437532144043216,1.9342423772169375,2.5958514921087374,-1.8857462146758945,0.39712700540184,-1.4333372781940972,-1.2220045448208607,-1.600693694302905,1.06396484375,-0.1015625,0.1396484375,-11.1875,2.6875,3.375
-1.4588553631848118,-1.2053039511118977,-8.893159187422565,-12.934266573942656,-3.771776362130359,8.3283156379983,3.0218155729193628,4.304920073836465,-1.4554801540843618,-1.2144804257344448,-1.5842073680980338,0.79150390625,-0.53271484375,-0.19775390625,-13.6875,1.75,7.125
0.04055385259286929,-2.642236975478884,6.137099355904151,5.265494843197714,1.2119797511647141,-12.929894400006171,-10.121103236071082,-11.392556469067808,-1.4371481045013146,-1.2122703547108873,-1.6107493311718772,1.17236328125,-0.236328125,0.4443359375,-28.9375,1.4375,16.1875
-2.414593971617843,-1.4608090673695264,1.0275618120551282,0.2873572282850396,-2.5456209243407817,2.3058296108255822,-0.9781868997781661,2.805796603535911,-1.442012976605758,-1.1978559999293914,-1.6205921997022188,1.1474609375,-0.5888671875,0.279296875,-44.5,0.6875,30.75
1.1762151142033148,4.048238199804738,-1.0676826526902135,1.2551534958098831,5.779632134139686,5.731357871028783,3.134410958428021,-1.2800495774849252,-1.4689471976488682,-1.1762538296619942,-1.614041355011843,0.8662109375,-0.54638671875,0.037109375,-60.375,-0.0625,49.5625
0.6097385375915003,-3.4010501260394257,9.644275735328323,1.615525894468112,0.3391509238078496,-2.5342499812620076,-6.493887541502827,-0.17153481782652152,-1.49245865004895,-1.1440112214342535,-1.6136333162089482,0.884765625,-0.6884765625,0.07470703125,-66.5,4.625,73.5625
-2.58089282780354,-0.7603129324837671,-31.722246383059385,-7.660525663582275,-3.089275040789662,-3.2601744773323675,8.718104108673801,-1.1476669949306466,-1.5118531934478558,-1.1041381602194476,-1.6156850284070208,0.9091796875,-0.79541015625,0.09716796875,-61.875,5.6875,93.0
-2.5900767905499533,-16.545359129659317,-51.9394739756694,0.12940637403120211,-2.0199569133776523,-32.90981999478192,-43.505728627049145,-5.3370559904877934,-1.530823860991399,-1.06188272763351,-1.6159081166624405,0.9345703125,-0.955078125,0.068359375,-55.6875,5.5625,114.0625
-1.8802639318324401,3.9259278459660503,6.578760893901925,2.074701320256928,4.810820173061759,-22.259439333322565,-33.02468755821705,1.3277600518781834,-1.5468879258834105,-1.0097487348830223,-1.6139560611040726,0.86376953125,-1.07275390625,0.0341796875,-41.6875,1.5625,141.1875
-1.5077113443187862,-30.5504304438405,-34.240875635581745,-0.08304399974059948,1.0264654189935323,27.932578753709294,73.9813933755226,4.1052688016084495,-1.5611265988808012,-0.9456739465006356,-1.6113828396203131,0.87548828125,-1.21142578125,0.02734375,-34.25,-1.5625,176.0
-0.8651172600735497,0.2924279015202301,60.072358947233596,-6.249457664036187,-9.272431947656157,5.037116630403021,11.285428029063041,-3.56244282035873,-1.5723033650391625,-0.8681175613610735,-1.6089321908195848,0.8798828125,-1.35400390625,0.02783203125,-27.25,-3.8125,213.6875
-1.8032723646717181,25.293478755609414,48.73494241112663,-0.3496368524453444,-6.555918295774053,8.737396470846383,-24.89029006438333,-5.04137390867391,-1.5799349137960803,-0.7783469971210301,-1.6072201545773908,0.884765625,-1.4267578125,-0.00927734375,-17.125,-5.25,251.5
0.8974514082474164,23.009282017230433,-1.5979229450837795,2.0445888277206117,-0.6571621374028018,5.824793603357434,-1.8617488957293575,-0.9902244045864648,-1.5858785227854193,-0.6771807334392347,-1.6022601497371518,0.865234375,-1.45849609375,-0.05419921875,-7.6875,-13.5,285.4375
7.918479660753769,88.27609250151362,7.16702916236526,3.395437481373938,11.634541056864139,3.0141858504688273,18.687768479497397,4.353080336352652,-1.587965823575905,-0.566861684872183,-1.5946043759148534,0.86865234375,-1.5146484375,-0.06005859375,6.8125,-22.4375,314.625
-6.814057922880933,-26.637504601501288,3.323969045399517,0.4791877145578962,6.221856689654381,7.7089887999301325,2.4019434356117233,-1.005853487778209,-1.5797531389035215,-0.451031221895964,-1.586092007982007,0.82666015625,-1.49609375,-0.0322265625,36.0625,-25.875,333.4375
-2.241085638096148,-34.7429411185686,-3.1633204769112226,0.1250184779354793,-7.55310246253211,-1.354850961943603,3.1381344530028823,-2.475286131515334,-1.562851599127331,-0.33175660580363825,-1.5753393565304403,0.7236328125,-1.42333984375,-0.0498046875,61.0,-28.375,346.125
-0.9396418477648162,-68.37337093954443,9.612074824329815,-1.6508054552522446,-5.539195244862482,-5.868498157188183,-18.223708058901444,-1.605783015752762,-1.5431206240810529,-0.2106160565271804,-1.5615140490550854,0.60693359375,-1.365234375,-0.03515625,68.5,-31.4375,353.5625
-3.6285284454178997,-54.97120977842307,-13.267539228032398,6.909382525625623,14.684645625622887,5.514298510706162,-3.3243874851697757,-0.5246940605776279,-1.5222164465636785,-0.08962891325563316,-1.544732009589681,0.5244140625,-1.33544921875,-0.04052734375,69.125,-34.25,355.4375
1.5950777980218065,69.59087305223868,-32.56836727956946,-2.1011466549778777,-3.5475128231446305,0.01955177993089709,7.893455499213534,-2.2435701710661067,-1.4973164511755594,0.029583328487215406,-1.5246263108425242,0.4296875,-1.26513671875,-0.02490234375,74.875,-35.9375,353.125
-4.542811760463306,-35.56793338243434,5.539829260769533,3.938344937898097,3.236112993999527,-9.146364713732227,3.481370152637711,0.5777718609592707,-1.4676882971091965,0.14475368398833147,-1.501925538417518,0.33740234375,-1.20947265625,0.00146484375,81.0,-35.0625,343.5
2.3220978326730157,-57.97111423291183,40.593869367911275,-5.69208098473627,-10.526729772768059,-5.063401874020035,3.657745071072609,-1.491753851813567,-1.4330977482601146,0.2559306074412792,-1.4750832758824617,0.25,-1.15087890625,-0.0126953125,86.8125,-36.1875,334.75
-0.4367237376250221,73.08272470564697,-53.00309200580494,-5.906101102423802,-11.719782115092755,-5.222208257368709,-10.648703813930418,-3.662586484841692,-1.3939399471913891,0.3625431891665481,-1.4430284024521969,0.17578125,-1.05859375,-0.02001953125,87.25,-38.4375,324.9375
-0.47189850433161556,24.640189423590385,6.763726210640823,-1.6977192540564574,-2.34281582822702,-1.0654838305588648,-5.487469151600308,-1.2002531461317971,-1.3506431233690328,0.4639946610297706,-1.405539821254735,0.119140625,-0.986328125,-0.00830078125,84.3125,-38.5,314.25
-0.5203141310853145,99.24814695735535,49.24720780291045,-1.7126016503257342,2.0923570915779472,-1.349200629987664,-3.9920496642961734,3.5220378959537637,-1.3007192765735884,0.5603216948251821,-1.3614915557939131,0.056640625,-0.8935546875,0.01806640625,84.125,-39.375,303.5625
-3.6334499736838026,-16.297026496331437,-14.709985464954496,3.3065237075710168,10.092453927811617,-2.8125591139333954,-1.7232068871779807,-5.935318168508148,-1.241541029991655,0.6503489008252169,-1.3088959666891384,-0.07666015625,-0.82421875,0.03125,86.9375,-42.5625,291.0
2.3441320298570067,-53.17652981847262,-10.87974699558369,0.26564010488854267,-4.449013045341465,0.9411745389403515,-2.7259553496128546,-2.133345002732393,-1.1721526676835838,0.7318348683997229,-1.2453214497910656,-0.10498046875,-0.70751953125,0.03369140625,85.75,-48.4375,274.9375
-2.103641772407702,-17.364596700237914,-4.78440958561629,-4.737688662546632,-3.586030543303512,-7.305415807744631,-12.136730049573519,-0.30079296910442405,-1.0917130193081028,0.8047060341989617,-1.1698110786287907,-0.17578125,-0.5498046875,0.0625,82.4375,-51.9375,260.3125
-1.1972487887812366,1.1712163681513696,2.718486159601114,-4.946969638612304,-3.545773841035661,8.212760738646788,6.288250513306132,3.1744225139470412,-1.0039573378257505,0.8668712811688991,-1.083149977317071,-0.24365234375,-0.46923828125,0.09814453125,68.75,-55.5625,241.5
-1.066631633529461,-0.5716950014329262,-1.3465084158835294,2.660502304948486,0.23483624090170624,-2.5615813125930065,0.11826316943761139,-3.8746459314823167,-0.9070089566536976,0.9177579442984612,-0.9864058895687188,-0.2734375,-0.4140625,0.15576171875,62.9375,-57.75,222.75
-0.8626423443435198,-2.464537815002698,-2.174989960998439,-3.8406153444392452,-2.338345389689582,-5.469130635155956,-4.2981015778449425,-4.490171020547236,-0.8025032826302976,0.9569551534865746,-0.8851996768874888,-0.3369140625,-0.32080078125,0.16943359375,66.6875,-56.0625,199.3125
-0.16896482969761056,-0.7117974235803717,-2.2187936409803806,-2.2417748805896247,-2.5312302088604968,2.889590526908029,2.3543862571709293,2.2631124322875165,-0.6973111993281008,0.9849447386898504,-0.7839845114464555,-0.3486328125,-0.2109375,0.1923828125,62.375,-52.6875,175.5
-0.5170096996013582,-1.5401115558951286,-2.9320013446858395,0.1984637967027713,0.5447068183542766,-3.610604003038042,-1.346302097301586,-0.026802471975438422,-1.4052569929004988,-1.2669501483863743,-1.3442039148415321,0.96044921875,-0.30419921875,0.064453125,2.375,-0.5625,0.125
-2.124073089485009,-1.6471666566579648,0.9864741782112831,-1.596266154569639,-2.3670433274486915,-0.799335374150317,-0.27579738534981346,-1.1349754347799947,-1.4030745133122249,-1.2669132951405109,-1.3442556906770151,0.95654296875,-0.29052734375,0.06298828125,4.125,-0.75,-0.625
1.0524810299871954,-4.152697043829069,0.39509234152764716,-4.191800438583444,1.9335646314006065,0.9907783822348578,-2.2805130366507615,-0.014223395263155029,-1.395954261911416,-1.26793538728801,-1.3507054052506329,0.9853515625,-0.2763671875,0.12841796875,1.6875,-0.0625,-1.8125
-0.22314652062101473,-1.381829066385167,3.054535901803912,1.6507879036044097,-0.19058043851981554,-2.0692576223158823,-0.4725863436811917,-2.1299382713640713,-1.3659052279979549,-1.265543880746948,-1.3801051058998748,1.22216796875,-0.43115234375,0.49267578125,-2.125,-2.1875,-1.1875
-3.563923224423404,-4.933009168826132,0.9460826501555676,-1.8202438811265873,1.0562169861357626,-3.0374230121744654,-2.277323564584722,-0.6011631281462846,-1.3349041115641895,-1.261097681632398,-1.4088185247065237,1.0849609375,-0.46826171875,0.49658203125,2.5,-0.9375,-1.6875
0.24496591994416744,3.5547040639893175,-2.1239906663962365,3.141800474713984,5.513301931665664,0.5833279912175808,5.383526460827438,0.12911934454712246,-1.3821915345345783,-1.2638920620084952,-1.3607011643401394,0.7421875,-0.255859375,-0.568359375,6.6875,-1.6875,-1.6875
-2.5248288280936357,-7.125590375012218,-3.145893254060788,-6.607566518071592,-5.116125597971656,-1.8290289525328374,-7.544702972379687,-6.035072308790585,-1.327492240447908,-1.2622529055895992,-1.4107257674447593,1.17236328125,-0.32421875,0.724609375,7.625,0.5,-1.9375
0.6576330601778508,0.8369854207392451,-1.3206805142397942,-1.9029609363763982,0.3504961358727503,-1.8254324868223963,2.473508894256506,2.5195499606574936,-1.3769403787559118,-1.265901199776243,-1.3610057185057143,0.72607421875,-0.23779296875,-0.6103515625,7.1875,-0.75,-2.0
-4.015749570437883,-4.294209933631257,2.861997052026106,-2.6397528270175608,-4.181405159751082,-0.3646946294629594,-12.883397573438407,-4.494915973042339,-1.3253272151292856,-1.264207990388187,-1.4113630421477603,1.16650390625,-0.31298828125,0.71484375,-2.5,1.0625,-1.375
0.8839152492792116,6.417282634607997,-7.4671213163038015,-6.76491807504619,-3.371840912228748,-21.788240085754325,3.2331938345605753,5.633736213857201,-1.3800649619982979,-1.2671304431067338,-1.3612249788111472,0.73486328125,-0.263671875,-0.607421875,-5.375,-0.4375,-1.0
-2.2470591325645826,-4.354420334040841,8.416630135305615,6.675000965877973,-2.5774857670419498,17.985367592850196,2.1736865234430605,-5.5651487680867335,-1.3310147560874888,-1.2630163933305063,-1.4110583372753238,1.17333984375,-0.37841796875,0.7080078125,-9.3125,2.375,1.0625
-4.094102988010011,-11.028909373634205,-3.7583872145339283,-6.5350414958195575,-12.50902389127624,-28.0227048156833,-13.72298927752525,-5.858343863146023,-1.383074918401298,-1.26284288118402,-1.3661749215961352,0.822265625,-0.25244140625,-0.55078125,-14.3125,2.0625,8.75
1.659057772218505,11.859625913561313,3.017665131900503,8.13909903811824,19.49291431234792,12.73650217885551,11.99275244333017,2.871125832383976,-1.3758474967015393,-1.2543491642871922,-1.386263590158344,1.2314453125,-0.34716796875,0.3330078125,-39.4375,5.0625,23.9375
-2.295139024102341,-5.307394989728922,-4.409554839190896,-1.2222149678593994,-12.747532104016612,-4.264534001594752,-6.155028183713725,-1.6865172271199242,-1.3949205175607442,-1.2367374833399103,-1.3933617476971816,0.9541015625,-0.40087890625,0.1357421875,-75.625,10.125,43.5
-1.0144195785597732,1.214378776919534,-11.55368474260089,0.8661062374203337,6.517210402069936,8.718790989559537,14.942402295243367,1.5321246846425536,-1.4211862148759369,-1.2065497708960915,-1.4016269674229247,0.93359375,-0.5673828125,0.1337890625,-99.25,16.4375,69.5
-0.22878803583940807,-6.947446851692912,-0.8000821955488984,0.2435464237528246,11.804786738639471,5.240614184055326,-3.481081222659337,-1.000835320890358,-1.4522148640841601,-1.171752124120094,-1.4108271598058468,0.88232421875,-0.818359375,0.189453125,-112.6875,20.375,91.0625
-1.6966749402435024,7.483100789175371,-34.81326572939805,0.9458724074702356,-3.377919096409363,-1.268530071761981,-6.6082201921450325,0.4306637894381867,-1.4810209144963682,-1.1281035462737812,-1.4208282514806718,0.876953125,-1.06396484375,0.15283203125,-109.4375,22.625,112.6875
-0.7618009054262158,-85.65066405033261,-17.21447535643051,-0.7811494230985374,-0.0005163250041318411,-1.6280094356055175,8.30442364433548,2.1472082027267407,-1.5028468989271777,-1.0734681834349844,-1.4270422205290978,0.84716796875,-1.22314453125,-0.0234375,-77.5625,20.8125,143.8125
-1.0170242749532856,18.147993017182728,-1.2238566174803065,-2.512981562776927,-4.093684224463451,1.4303993961821122,3.4488776910602486,-0.7673224232171333,-1.520160234333929,-1.0028338286374745,-1.4249073749216372,0.89990234375,-1.42578125,-0.09130859375,-42.4375,10.75,189.9375
-1.5555956890082687,64.51540430841652,43.577529164048784,-1.493803064703818,-10.15886895210076,-0.508406626133749,0.5240395553472963,-3.9376854611223098,-1.5314222215631483,-0.9096755031449499,-1.4212387772794572,0.92724609375,-1.6123046875,-0.0322265625,-23.375,6.625,254.8125
1.5735049170468118,7.553440651494516,35.524805021444074,6.338347888695378,3.232554935166917,-1.2127232930806817,-0.6832775866143087,0.9611162781497856,-1.5296173834671198,-0.8022255915645069,-1.4204218522333525,0.90478515625,-1.46728515625,0.064453125,7.875,10.375,300.6875
-2.4932580954086716,5.682843571328535,-3.969857051815641,2.8261974889162595,3.382195031168693,-3.2471464243071435,-10.993780489627246,-2.057602636910035,-1.5316389101582926,-0.6860313085969103,-1.4206763329561898,0.791015625,-1.3232421875,0.0556640625,-6.75,13.5625,328.8125
-1.0539269999015253,-0.5697187147184457,0.6616931712334171,-11.513274034312733,-9.575290194680333,-1.5193500478063184,-1.8089138867565848,-0.6812372599984228,-1.5433975510957432,-0.562203385553844,-1.418616751803074,0.7177734375,-1.4111328125,0.076171875,-30.875,6.5,352.875
-0.318656853636202,-3.528608754673718,-8.31737678861074,-9.276172540914374,-6.074380192419861,0.3218066858644028,-4.380412338126428,-3.5161747572125504,-1.547361457807442,-0.4346690340146093,-1.4137768204042014,0.74853515625,-1.48828125,0.08447265625,-5.1875,-3.5,366.9375
1.427362153457319,0.009688323252952847,9.717023113931036,-0.7182505108773357,4.7592433744919065,-0.3668744854400531,3.2829637031528596,0.7022783896235774,-1.5341363693025198,-0.3074945095331605,-1.4084789227499988,0.828125,-1.48779296875,0.15576171875,41.5625,-3.625,370.9375
-2.764083816910208,-1.9037364072667882,1.929513935101559,-3.988369719564732,-1.0708707311002763,-0.7827637064057683,-0.1182067905215222,1.0931673689724046,-1.508113656504224,-0.18154137953682006,-1.4034225198296737,0.83837890625,-1.306640625,0.19482421875,76.375,3.625,371.9375
0.8177200041576839,-4.160343897611953,-5.917954405419135,-2.888081941551103,-2.1184883965268098,3.4788425974540877,3.8904129964382337,-0.8754302100607702,-1.4813141866076704,-0.058792114798523226,-1.3964838823269146,0.72314453125,-1.17431640625,0.14794921875,78.5,8.0,363.8125
-2.5485492354589767,-3.1332591490269164,-13.303273108734302,3.7583494422738735,-2.187859357606474,-8.177576755242502,-6.691357113186161,-4.25521840287483,-1.4588103234253806,0.0604537680225425,-1.384467390637849,0.61181640625,-1.23974609375,0.1201171875,64.3125,1.1875,355.75
-0.9635724364744801,0.19337741432815905,-11.167333240803517,-1.4014131047666925,3.1274977137098987,1.0714572133322078,3.0529122730525904,2.121914473384645,-1.4293464924111865,0.17365985680483648,-1.3694830094388757,0.53173828125,-1.234375,0.1845703125,79.375,0.3125,340.1875
0.054980092037592035,-1.0858893900849984,0.8744764552485799,0.28531214466898364,2.892618808042154,1.5222648390315785,-9.37543452413549,-4.40566285679771,-1.3918977796792869,0.2799852449320959,-1.3531058434000325,0.4189453125,-1.02978515625,0.1875,96.8125,5.1875,319.875
-0.7751922066895399,-6.482925933747252,0.7007892478899722,6.254435550398319,-2.571167325502917,-2.596559952866068,-3.191993427160053,-0.16973107443195795,-1.3540495859892911,0.3793192239579077,-1.331420273278616,0.24853515625,-0.890625,0.107421875,89.25,-0.4375,300.5
-5.051692888410293,-2.6907408714432455,-0.5444143189318055,-0.6292161201179938,2.031871152448972,-3.85796244334174,-6.358405714282816,-3.6319469366072927,-1.3130312323082554,0.4705861413757115,-1.30280445061952,0.12890625,-0.86181640625,0.09375,85.6875,-9.6875,280.875
-2.2765368493451326,-7.525196474679379,-0.31274674681262393,2.0159572395273084,3.2523501938927195,2.3770569295103723,3.404203040747313,-0.1821820079913997,-1.2641169068413822,0.5527528504398095,-1.268960495146625,0.07177734375,-0.82861328125,0.09375,94.9375,-14.625,258.25
-0.6613356493305884,-3.7483699688812298,-1.9005949700294131,-6.366425098477494,-12.382797959916838,-4.223629481732219,0.18060403719543378,-1.3848924714602082,-1.2068071154101097,0.6266513711225091,-1.2299707810462948,0.0048828125,-0.70068359375,0.07080078125,104.3125,-17.5625,237.75
-2.226753582881413,-0.6478595622392048,-2.3360850026147495,1.0476624477824594,4.512984411717468,-2.0299441808070164,-5.940340728546974,-1.1081415025145565,-1.1458484637461912,0.6928220017000852,-1.1852347280915905,-0.13671875,-0.57177734375,0.0595703125,98.6875,-20.8125,218.5
0.28381301714977525,-1.6441346724587136,1.769564803913689,-0.6366597308643634,1.6171539138592956,-3.4447629513159854,-0.9784789204993676,-2.652135218458105,-1.0829537460208698,0.7511531332662608,-1.1343439668742086,-0.24169921875,-0.501953125,0.06982421875,85.9375,-25.0625,201.5625
-2.6615779646393656,-4.643137981591642,-2.1734345288679764,-4.595160619714543,-7.387418119515018,-1.6486019187244685,-5.040410089338517,-2.832066344728891,-1.016840599966957,0.8009746088390683,-1.0790632051807254,-0.32568359375,-0.50146484375,0.08447265625,80.625,-27.875,183.0625
0.854314999595058,-1.8297922420502313,1.5618622405788678,-1.489842463240723,0.1642822138815407,1.192564992310374,0.3522867473921035,-0.6151044854282384,-0.9464358579803114,0.8431809935455946,-1.0211752601268136,-0.38671875,-0.44775390625,0.09619140625,82.1875,-28.0,165.25
-1.395114924770687,-0.4112323658873406,-5.958826500369782,4.462077258786787,-2.8663888336252805,0.9514284867337411,5.667083981675002,-0.08997743988920485,-0.8739920075735327,0.8790127947277909,-0.9587068677368764,-0.47216796875,-0.30859375,0.12255859375,72.8125,-30.8125,152.5
-0.7102707859922387,2.8959291185671114,5.606771597171559,0.6924141813111948,4.633268870360265,-2.9021665664506817,-6.770062429931707,-0.69135392193733,-0.8060918827209389,0.9084411094109329,-0.8935691843222083,-0.55712890625,-0.283203125,0.1572265625,50.0,-32.9375,140.5
-1.3787948344246919,-0.9517834977999599,9.915195784196785,-9.636960691672865,-6.585955549663835,-4.887053484621032,-3.217775007133356,-0.33218372005183106,-0.740311060583871,0.9315408238750308,-0.8289976308356728,-0.5771484375,-0.31640625,0.18896484375,42.4375,-32.8125,126.8125
0.08881415286781827,0.2559105197314633,31.953448813235706,8.31593355318146,7.2048091318435326,0.9703470014704583,-1.8168885409000453,-7.718740801318269,-0.6747021491452151,0.9487779069779368,-0.7677594531125623,-0.59326171875,-0.27587890625,0.2451171875,46.9375,-30.4375,110.9375
-1.7716516875633679,-6.609931921192786,-31.939003738571603,-4.676538018208224,-1.3736163679755033,-0.7325802056296499,-1.8654513513067188,0.3358578732748845,-0.6132450041814346,0.9642359695579932,-0.7107876010606126,-0.6484375,-0.1806640625,0.255859375,42.6875,-27.6875,97.3125
-1.0691081519877035,4.26282651851821,-27.143844548283376,-0.6959827022743408,3.2487772086576596,2.405448153340274,4.956264754177453,5.704190938973098,-0.5587320385516157,0.9762345112747668,-0.6546487993186301,-0.67626953125,-0.14599609375,0.3056640625,22.125,-26.4375,89.0
0.5069315652871433,1.7229229093377585,-0.11742266403904872,1.6928901032427766,-0.8762571658616237,2.09251983880553,1.4770495239252261,0.9261493218970092,-1.3600975099756798,-1.0722780609253693,-2.0406995414909233,0.86767578125,-0.5146484375,0.1376953125,6.375,-2.5,-6.5
0.492695318149237,-0.401192914868521,-3.228546863526405,-0.7772456624710957,-0.46278386777694924,-1.8111652598616441,-2.4388843871153494,-0.5560157608677962,-1.3563942234313573,-1.0737806617791843,-2.0410749608107532,0.8740234375,-0.49609375,0.12744140625,9.5625,-2.125,-5.9375
0.23833415259617913,-2.130202921109975,-0.6301211777062283,-2.7835425202054185,-1.0253027303548354,-1.4376449615351163,-1.2677119091777012,-1.0648819312651001,-1.3544130180021436,-1.0757368714129931,-2.040698162674307,1.048828125,-0.513671875,0.1240234375,6.6875,-2.0,-2.8125
-1.0155709898104102,-1.6596498703694966,0.715894268563058,-1.3344375824148655,0.030747600084531465,-0.8810364290497926,-0.02835173302242782,-0.529878698377364,-1.3565914830798502,-1.073331457522405,-2.038922047423023,0.814453125,-0.57421875,0.07666015625,-0.9375,0.125,-1.9375
0.5213547248559235,-0.7672943454327108,0.6595119321549413,-1.1166789151180545,-1.2084801591944192,-1.4678750615181857,-1.5091520255242223,-0.19517927847580538,-1.387332733625178,-1.0739184231089407,-2.0134119749666457,0.63525390625,-0.43505859375,-0.50390625,-4.9375,0.3125,-0.75
-1.6864659433247606,-2.0487012381788072,-0.6770663665605391,-1.8963980885919782,1.3202736631940755,-1.8809099861107996,-1.4713175901023414,-0.9679822427868827,-1.3589933013771482,-1.0730522881793778,-2.041177833576569,1.1279296875,-0.4853515625,0.703125,-7.9375,1.875,2.375
-1.2116441608534754,-1.9668519567061225,-2.5609832337458744,-3.1062329632359473,-1.8097315680079373,-3.626849804999433,-1.5911592269451396,-2.7241806283322125,-1.3874809879319565,-1.0682787508606562,-2.0159490150605057,0.57470703125,-0.56591796875,-0.45263671875,-0.375,0.0625,4.25
-0.7723284225094746,-0.4808054206924498,-3.0690644801796974,0.01456855154480613,-3.3715049506372146,-1.53469770884237,-0.5490723281137903,-1.9933760915264735,-1.360171143772264,-1.0664459900364232,-2.0411098948465107,1.07080078125,-0.4384765625,0.68310546875,-4.5625,0.4375,6.9375
-2.3587717616165635,0.7160258879058234,-1.0570680498668,-0.4321559515256616,1.9676578806992882,8.502736363536899,9.871641946609925,3.2010007803916336,-1.389080333819303,-1.0603787462642495,-2.0145314350562726,0.57275390625,-0.583984375,-0.4453125,2.4375,-2.0625,7.75
-0.07977444825552321,0.9629812021367506,2.7107486788454147,-0.0812229353537592,-1.2368771569266124,-6.687067313399439,-10.131609272605514,-3.8539316525614082,-1.3630555167133358,-1.0586828482331658,-2.036875363174049,1.13232421875,-0.44677734375,0.64697265625,-0.6875,-0.3125,9.4375
-0.502120063321578,-1.0809172919351417,2.110853417397379,0.8072074172265606,-1.7351589485131134,1.6415359238565612,-0.4487085923930999,-1.1581683497881492,-1.3946838065266929,-1.053478441417595,-2.007453231848668,0.67626953125,-0.5595703125,-0.51708984375,4.125,-2.1875,11.6875
-1.520350301847262,-2.4784594047429875,-2.1774363670044066,-2.0173241723486517,-5.498394167611785,-19.10918397316181,-13.01329699635817,-3.143055974238469,-1.3726628895347541,-1.0505950638258388,-2.026472287795839,1.2265625,-0.4541015625,0.63916015625,-2.9375,-3.0,17.8125
1.2610374055539124,-1.3479007816211332,-5.0053889857692,-7.6582243178694025,6.802382540686076,27.28622604521164,20.55006328512526,7.64367621154811,-1.3851019237464004,-1.042530236404283,-2.0159614110004624,1.142578125,-0.6044921875,0.14013671875,-10.625,-11.5,28.5
-6.101488933323468,-3.076916421834939,-0.42624126956573866,-2.3494097361148443,-8.739135520620705,-16.89236735403589,-11.371421180896766,-13.962587463213524,-1.4117468296713591,-1.0277948520323057,-1.9975288651716492,0.9541015625,-0.55126953125,0.015625,-27.875,-14.9375,47.375
1.0537622052026208,-2.2618713628193055,-0.6135419772998958,-2.1035097973995986,2.941830868679013,0.2110384467058008,-7.670943508237116,8.949112804047582,-1.4448967837380176,-1.0034501006897725,-1.9754880078395256,0.8828125,-0.603515625,0.0244140625,-39.6875,-20.375,70.8125
-7.422594214821963,-2.835893269867158,-3.412618004399583,1.7049075437432462,-1.5215755076442263,-12.437939298253081,23.452976989006018,-1.2315496432805046,-1.478518218948588,-0.9687905435897136,-1.9525894972734943,0.86328125,-0.71630859375,0.01171875,-39.1875,-22.6875,95.3125
2.9593458207710337,0.21160191891946964,-1.3390552310045907,-8.509092129546238,0.9563373811123481,-18.235653811621702,4.126675192691265,0.7801927562189587,-1.5061673998399194,-0.9287869622524834,-1.9312850022157653,0.8349609375,-0.78515625,0.02294921875,-29.75,-26.3125,114.8125
1.8562903637913548,-4.602551803213478,-18.749853785569403,-4.325011348671663,-5.5576885746857165,12.07675277986498,-28.240125978151983,0.6464811970897575,-1.5320335418205833,-0.8812650305958121,-1.9096943969569469,0.81201171875,-0.8896484375,0.0185546875,-24.4375,-31.125,135.1875
-4.81770122323761,-5.437129753978517,5.659355292106559,0.05393293183106698,-12.493134928653909,-20.373880314934052,-19.659802862800323,-12.227316099800952,-1.5564902643875556,-0.8267435364554584,-1.887375812755176,0.81982421875,-0.96875,0.02783203125,-22.4375,-38.0625,154.5625
1.8567375275106939,4.82299570040448,20.677633024174646,5.1011212974102005,9.124014483901558,9.701126958141263,4.1221588196086,2.369294350657685,-1.581681853667228,-0.7661054200144753,-1.8645736130274968,0.8095703125,-1.07666015625,-0.03759765625,-25.125,-45.1875,171.0
0.6909852595096466,-0.7974937327306999,-2.0673532625522717,-3.130404854582974,-3.0145572637901314,1.798495546242076,-8.632287165711334,-2.6988275354251474,-1.6066298045043266,-0.6995223099380576,-1.840345326789276,0.7734375,-1.19775390625,-0.09326171875,-24.0625,-55.25,186.25
-1.2628067531642735,-1.9111561830247368,-2.5949746806557563,0.7804553783314943,5.301553415052058,3.2906661663309817,-3.461698318701661,0.02073349887933294,-1.6247872036738715,-0.6266979428769269,-1.8174025205098492,0.74658203125,-1.35546875,-0.08642578125,-11.875,-60.9375,202.75
-3.0405474480885926,-4.476039102634827,-2.569856661802639,0.2870086444562559,-7.1295104196775565,-4.453539160638804,3.4964224441701743,-2.492849827599119,-1.6280038976940585,-0.5483745727714362,-1.7984785418591305,0.74365234375,-1.42041015625,-0.02880859375,20.125,-58.0625,219.75
0.32210653621359686,-0.012443205079048659,-0.3057986782215836,1.7049939473691484,1.8844779142562704,-0.8902793731936804,5.921245322630806,1.5883016675287354,-1.6180119507705832,-0.4639627518365196,-1.782262889931436,0.724609375,-1.384765625,-0.04248046875,51.0,-53.6875,240.0
-0.947090868064935,2.6846231997227648,4.719911256848097,7.443467793252555,4.0791392276149345,-1.2775524579722464,-2.7052771895062357,-2.3842934231451682,-1.6012281158452502,-0.3720239435854841,-1.7639020488971755,0.728515625,-1.37353515625,-0.08447265625,70.1875,-58.1875,264.6875
-0.6052837181608546,-1.9679647418346877,-5.827321614375419,-7.266661717994962,-1.7055219380752003,-0.046978947564562085,-4.922485406037667,-1.3053231550516924,-1.5824805939659092,-0.2696278080637736,-1.741271164485567,0.70751953125,-1.3994140625,-0.0732421875,75.0,-67.5625,297.5
0.629270909388709,-1.0631097612919733,-4.1436065437341805,-4.71950647983142,-4.410952245975377,2.8255314008126557,0.94488253834421,1.2776868175354485,-1.561235816465206,-0.15913797089394638,-1.716014373759009,0.529296875,-1.4580078125,-0.056640625,77.5625,-70.8125,322.0625
0.03518824057055444,0.45718466164002636,1.4589022973321115,8.056328442294655,11.626240225186004,3.073942177031976,-3.6699673104347674,-1.6566055509346393,-1.534889891642088,-0.042489758297182906,-1.6871036517235831,0.2724609375,-1.43896484375,-0.09423828125,86.375,-74.8125,340.125
-1.7914539462950578,-0.6425530183099504,2.8323788125949187,-2.9335817841308858,-12.52650121665819,-8.125186349543643,-8.538806641251636,-1.7496572486015316,-1.5019037762189154,0.07441230504905917,-1.6543274989482584,0.16650390625,-1.31494140625,-0.02587890625,94.6875,-76.1875,344.3125
-1.2352272247766134,-3.3086295660666294,-4.423476444829811,0.5006457088275702,1.8522382243909006,-0.7092765944015129,5.919193031754588,0.33971584028251994,-1.4608648286674244,0.18790837953516645,-1.6184647983091671,0.080078125,-1.0751953125,-0.00048828125,105.9375,-72.1875,338.125
-1.0761529032309307,-1.633357715346087,-3.458469517784859,-2.9420393312515913,-1.235103627652153,0.001937547963809412,4.832151377822439,-2.3787134898991567,-1.4186033029720968,0.2942280902215648,-1.5799944104883004,0.01025390625,-0.9306640625,0.056640625,96.25,-66.5,321.125
-2.9511208230276913,-1.666203280337673,-2.418228182144669,-1.8746883650008983,2.041372944269099,-3.678148059134298,-5.170645009612574,-3.347496750799079,-1.3765099741584987,0.3938302180597829,-1.5372177965092753,-0.05810546875,-0.8603515625,0.06201171875,81.0,-64.4375,306.1875
-0.9732878007512081,-0.7914164000487799,-1.879216404022232,-0.10495536995229762,-0.6245421642700907,2.486027500582113,-2.416263261427839,-0.5595016407743578,-1.3316542500640165,0.4864109726011456,-1.489116985582882,-0.09912109375,-0.83154296875,0.06005859375,71.625,-64.6875,291.1875
-0.4804773603353525,-1.507330885347297,-1.454467172529392,-2.305696295461183,5.212446887618663,-0.46474465399174136,1.910709375563718,-0.7113545569232386,-1.2800750960204863,0.5717029462138824,-1.436583997160913,-0.14599609375,-0.78466796875,0.1162109375,73.3125,-60.9375,275.4375
0.19422535306428132,0.28812379833691826,-0.09191544527907579,-2.5676811700161153,-6.854403608403055,-2.2326571286031758,0.37883186513644374,0.28596718753832917,-1.2213785386886962,0.649278911346335,-1.3800675705762042,-0.2197265625,-0.69189453125,0.111328125,77.0625,-55.8125,257.1875
-1.5250382010045287,-0.7105337568008554,0.6693106396837574,3.239980753566435,-4.16851362020969,-1.9552649497428014,-8.059930748700012,-2.8857889630007914,-1.158759284653866,0.7186829892471764,-1.3189391017984524,-0.27978515625,-0.59619140625,0.0888671875,70.625,-52.875,238.6875
-0.8584304232326214,0.1499482537825517,0.6251270058059726,0.5614149375296122,7.153207822926401,-3.062508097646369,-3.634705766250787,-2.2312157434355515,-1.0932489954940514,0.7800866359527184,-1.252330357604891,-0.3203125,-0.544921875,0.13623046875,59.0625,-50.875,221.9375
-0.3832729657564591,1.3324942847480674,2.049698840025509,-1.0865098052984095,-1.972511992344124,1.4589589214322518,1.6480122746479413,1.0838345570958507,-1.0220264002441548,0.8331170639917844,-1.1810872809905528,-0.37255859375,-0.48974609375,0.16796875,58.0,-48.4375,204.125
-0.7876329689532723,-2.9753332396369876,-2.057996335245743,-3.489542183878767,-4.868876658188682,-2.3621841066412204,5.117760532146307,-0.5152798599886868,-0.9487390331895154,0.8770635705317736,-1.1076948750371003,-0.41162109375,-0.43798828125,0.197265625,52.125,-45.4375,183.1875
0.18224184804842203,-0.896829928491492,-0.3199929693023087,0.5431188828936486,-0.9014659705727448,-3.116487794344801,-6.928988305710918,-1.485051377645366,-0.8751377920099451,0.9127962222687848,-1.0317276852456063,-0.46435546875,-0.38232421875,0.20458984375,42.0625,-45.625,166.0
-0.34687180689424274,-2.941658824338671,-1.2389385876749135,-1.7290999219325973,-0.8485990639294947,0.8047750197684297,-0.0398762683579922,-1.2809163026545525,-1.3587562080599986,-1.209445021947132,-1.6670842075562815,0.96240234375,-0.35693359375,0.109375,-0.9375,3.8125,-8.625
-1.9338264799840714,-2.5042464932229667,-1.424844018159928,-1.692693780868115,-1.4066879662353535,-3.539357133047449,-2.0766445011917907,-1.6218382230245496,-1.346813120546574,-1.211807864281435,-1.6793318377316488,0.9541015625,-0.34130859375,0.169921875,-1.5625,4.5,-9.1875
-2.295024325823108,-1.7645262627416864,-2.776524989694395,-1.5876617449370256,-2.9659220241677806,-1.7774352765072783,-2.6794209118622554,-1.878011181761991,-1.3183674225753863,-1.2101048444064726,-1.7083411901458059,1.154296875,-0.49072265625,0.5,-4.25,3.4375,-6.25
0.188763381393924,0.0645511238328038,-2.925028765050331,0.6485961826510622,-2.902579287678234,-0.6168012099418727,0.3936210773253474,-0.3698848956495109,-1.291378109374896,-1.2054952302492317,-1.7334544145415929,1.017578125,-0.544921875,0.4677734375,1.5,4.3125,-5.6875
-1.0464855959817143,1.0519883100314469,-1.9736288741484165,-3.2159272732516793,-2.1526325868722695,-2.4270695456629965,-2.0587091815295784,-0.3992687361883896,-1.3265008485692729,-1.2104532128748806,-1.7007744127188442,0.71923828125,-0.2392578125,-0.546875,1.8125,4.25,-3.1875
-3.1154838131300044,-2.123813193172102,-1.1937852934567528,-0.2991280207112794,-0.31899942633627804,0.8627983451487594,-1.4957968762374627,-1.659065048119031,-1.2763407756695886,-1.2070217615201553,-1.7496162726840896,1.15625,-0.3720703125,0.779296875,-3.0625,7.125,-0.5
-0.3331487456778799,0.6752595815551746,-3.9550888404836213,-4.602176491996135,-3.138490729591126,-3.3007737525491985,-2.394451853622062,-0.7393746898355048,-1.3189135177852012,-1.2091889504999385,-1.7121978993479712,0.6865234375,-0.302734375,-0.6123046875,-4.3125,5.9375,1.4375
0.23990073377190768,-1.389265385768727,-0.8981835333620677,0.22575046239492108,0.6277041340167785,0.2255357860924232,-0.8649351141488093,-0.6479179946331889,-1.2713543251192567,-1.2044693604362828,-1.7599241666826275,1.16064453125,-0.3564453125,0.77294921875,-8.9375,7.9375,3.75
-1.2132524872877322,-1.1066476070852178,-3.342161100466098,-3.409534503106888,-0.04544716688773396,0.6986242935317023,0.030268520747785865,-0.573354082121016,-1.3161204153011234,-1.2050629106536492,-1.7209654344211678,0.67431640625,-0.3310546875,-0.6279296875,-5.8125,6.4375,4.4375
-0.7165456090243683,0.8474245621745946,0.2533196521134666,0.49010087925321444,-1.396926375513896,-0.37993953580971984,-1.059458280841616,-1.0067584924350452,-1.2705617826125333,-1.2001885829129493,-1.7674483804523478,1.16357421875,-0.3515625,0.7666015625,-11.125,7.9375,5.0
-0.9816959301650533,-0.0010071966679954562,-0.5563944267787501,0.5357031255956234,4.300684334967048,-0.6491975168128664,-1.4802706805525814,-3.0050885365021975,-1.317743499438383,-1.2011511991275452,-1.7270926810792333,0.693359375,-0.337890625,-0.642578125,-9.0,5.25,3.5625
0.12060526933632468,-1.386035871344244,0.2842427411274798,-1.3668584960103625,-5.693400541001225,-3.233971825234485,1.080221860475557,0.2175524760575286,-1.2968803408002902,-1.200267070627711,-1.7511444302416452,1.17529296875,-0.361328125,0.41064453125,-11.1875,5.6875,1.9375
-2.2784635640519304,-0.675571935664658,3.1646296167313825,3.7730894890414626,1.0517572173604663,-3.311093527524762,-6.56800426750071,-2.7143312184163264,-1.3005458563218906,-1.1994594768775,-1.75112382750653,0.84765625,-0.36669921875,0.04296875,-10.0625,3.4375,-1.4375
0.485332953606188,-0.16716012449440304,-0.8692199391083966,2.783717429748645,0.0487648122516937,-0.09059665774829266,3.296846381075519,1.2185611377422303,-1.3034693548978848,-1.1988898604782128,-1.7530670059551636,0.92626953125,-0.35107421875,0.0595703125,-13.5,4.875,0.1875
0.7773033007370107,-0.13684833953919176,-2.206138899725548,-1.0618568923431595,-2.5243506332107724,3.5906175414384522,14.50932405108405,3.5204188268005203,-1.3061660991519874,-1.1982363256235529,-1.7553879623546245,0.912109375,-0.35302734375,0.072265625,-13.1875,4.1875,0.625
-4.1392482881046915,-5.45864593643637,-0.12741388117897604,-4.123781060296581,-1.642131383704645,-0.04306788205259939,-15.377473870883179,-6.0077103658750035,-1.3087654415048795,-1.1972361191048155,-1.7577545908298482,0.91650390625,-0.3466796875,0.07666015625,-13.375,3.9375,2.3125
-0.09570917801593272,-0.20782266411723885,-2.382092228589753,-2.0396359480790003,-0.5486134083919763,-8.886523201769274,-2.0600397821647776,-0.17127371828787413,-1.314492874070588,-1.1958241164828491,-1.7586120131902572,0.92919921875,-0.34375,0.05859375,-16.5625,4.125,4.875
-2.181369879636286,-2.761351736315981,-4.421784722575959,-2.337471358928115,2.2739526184158954,7.0966742741214235,-0.885859944739685,-0.49628890967579076,-1.3260155894491783,-1.1918214339177058,-1.755341368876395,0.96728515625,-0.3525390625,0.05224609375,-24.5625,2.25,12.75
-1.7098386224146023,-4.775637005147479,0.14563834755671487,-9.50872226289244,-8.95708484387296,-7.178916017182485,-8.09282021661771,-2.2585292859914583,-1.3518823034156555,-1.1844960864936158,-1.7457026836560463,0.95947265625,-0.38720703125,0.03173828125,-45.75,-2.0625,22.9375
-1.5255513657937088,-1.3822999274025214,-6.901358393903579,-0.8138574269424927,5.669670238374264,3.4015062869819976,8.549761954319012,-0.5297972004458311,-1.3881783819102125,-1.1678134373340112,-1.7325222188142864,0.9599609375,-0.54052734375,0.03466796875,-68.625,-2.1875,40.375
-2.561327828768918,-2.211937439962634,-0.3982411328755029,-3.711337278147565,-9.523285884556854,-7.229669005125386,-3.6500736016610165,-4.4432241766911025,-1.4213306498405205,-1.1416630796639833,-1.7228995406659742,0.91748046875,-0.65966796875,0.05908203125,-67.5,1.4375,60.5
1.1448745793717294,1.5620144859172265,6.624155299868955,1.0479862116483059,0.9619686619682256,0.2477248226911268,-3.5978641716016777,2.472409443364648,-1.4517048957945817,-1.1063778132269315,-1.7151720422685317,0.89404296875,-0.68896484375,0.0927734375,-68.5,1.375,85.1875
0.2497095715472725,-3.5890297258782464,-5.880969563554609,2.1147550523557364,5.971376468531285,-3.349004735449332,-2.293678122394146,-0.4630054190660184,-1.4903967948494896,-1.0633556928768748,-1.7054445194874466,0.9052734375,-0.845703125,0.06884765625,-85.625,-1.5,119.3125
-0.7542925062290408,2.428840359851247,6.391527950561941,0.11574362936321667,-7.258240256352785,-14.775215233647367,-12.912942767659748,-3.606349953684409,-1.5342157713702018,-1.004810441707179,-1.6926931741818183,0.904296875,-1.052734375,0.06787109375,-94.4375,-9.4375,161.5
-1.2118774927604683,0.3292862214330945,-6.705750911247253,0.446724484770156,-6.490894718009124,4.011111394496484,-7.693229902783084,-3.024126162069331,-1.5786396436233938,-0.9307854944843512,-1.6788445471315323,0.9365234375,-1.18359375,0.00146484375,-94.3125,-20.0625,205.8125
-3.6718832214537906,-4.822245996296519,6.161831525013574,3.293969942175237,-8.774712520763618,-4.565472705042555,-6.036200152532212,-5.379016722922452,-1.6166143691572874,-0.8437142283156795,-1.668091018082901,0.90185546875,-1.36767578125,-0.01904296875,-85.6875,-26.3125,241.4375
1.9907082471665714,2.070590657180562,-16.06003574503042,5.926632033167891,15.398681683799548,3.5923298497468905,6.902365694546489,1.0076282851710578,-1.640782990466476,-0.7469713286617711,-1.6606207841351752,0.86083984375,-1.4853515625,-0.0224609375,-54.8125,-31.8125,269.4375
-5.735188435574993,-7.0052061389748035,41.794160328989776,-16.27888323635983,-12.447135318780097,-10.386518069730835,-10.44304883430137,-3.8746693212128576,-1.6498516454400682,-0.6431437448747263,-1.6544821537288463,0.79833984375,-1.49072265625,-0.041015625,-15.0625,-36.4375,291.5625
-1.6731848233206141,-1.9877548671229643,-2.5714717301928802,-9.059791194726627,-10.709149366191543,3.629213844358182,4.156699612419286,-1.530302856854804,-1.6478684524016962,-0.5337861634434213,-1.6473458918764023,0.732421875,-1.4560546875,-0.0634765625,15.8125,-41.625,309.5
2.633837909948327,-0.7362704518327535,-102.69468325170719,1.1679766572731853,-5.907269279503779,-3.356046350702139,9.274418852970292,5.808593988239559,-1.6403695273092895,-0.4196645647790373,-1.6383078227168104,0.65771484375,-1.42333984375,-0.046875,32.5625,-47.3125,325.0625
-1.4131661096993973,0.2669853658427412,12.796971307555374,-3.2068234602816106,3.406763546468536,5.05454140369815,3.0383995741001764,-2.3244079560750444,-1.6275763253128372,-0.3040739063637284,-1.6287430133897558,0.58740234375,-1.384765625,-0.025390625,45.875,-47.5625,331.8125
-0.5948731284276132,-0.8385254252397895,0.7405535973031482,6.154468972003017,12.945132907327231,2.4254394787262483,-0.5688055389659128,2.400892932989456,-1.6096085177715995,-0.18835930291627387,-1.6182740709648082,0.5205078125,-1.34716796875,-0.06591796875,59.125,-45.25,334.5
-2.0590133332029352,-1.8908026436693048,14.433650445727672,12.202726944165045,18.17165967684933,0.7089922994640203,-2.7308589206080676,-3.8070291435285704,-1.5840511609017274,-0.0728860884065177,-1.6049695919872649,0.43212890625,-1.3134765625,-0.091796875,78.9375,-46.0625,335.6875
0.28512500836224564,-0.6744957234812435,-3.011643490506226,-5.956062718900071,-10.478432576646233,0.07383579827774554,2.9604315857867514,-0.07077441559612782,-1.5508750913262233,0.040589606604235634,-1.5886922467795543,0.3671875,-1.22998046875,-0.07275390625,97.625,-45.8125,332.9375
-1.545755735674386,-0.6763310273020939,2.32784728558671,-5.772249192664276,-7.148432383389724,-3.819695176317707,-9.686397087722847,-1.9369671415014893,-1.516285677421159,0.1517959970469788,-1.5701053086669796,0.3154296875,-1.13427734375,-0.0322265625,95.5,-41.3125,329.1875
-0.2002756814763904,-1.0367982708571635,-0.12349919193154599,-2.862728964779451,-9.697382706070098,-0.3415930774845516,-1.7664361207070014,0.618344046797061,-1.4831689469060356,0.26123926512381923,-1.547711906033168,0.23046875,-1.03955078125,-0.07080078125,84.3125,-40.125,326.25
0.006632917603153075,-0.4851294710895008,3.7785304867368774,-2.4024673201582503,3.8731979466670357,-2.7670664782632195,0.12339030035876478,-2.260616519848518,-1.4482465101324051,0.3681107485578238,-1.5189200061917807,0.1083984375,-1.00830078125,-0.052734375,77.25,-46.0,320.9375
-0.6878902691163339,-3.0846007088795826,-2.1411097422777376,-2.916190282671781,14.735827022402882,6.7343725497465385,0.7352700204199266,-1.3738366350571842,-1.4034664076312262,0.468722344652846,-1.4841327779179776,0.0244140625,-0.943359375,0.03125,89.5625,-48.4375,306.4375
-2.3509613082277907,-1.5757595477247388,-2.0216806674798105,6.284446878390907,0.08147901414364045,-2.493907616049922,-0.37187497384746737,-3.0620411685733666,-1.3513077851492832,0.5615203915123849,-1.4440319044403458,-0.0712890625,-0.8173828125,-0.0048828125,95.5,-47.5625,286.4375
-1.0870074424830798,-1.4230658856408094,-0.4793281026877123,-3.281935683242639,-4.211185474949907,-1.9431565673136149,-4.488011385395819,-1.472890286654276,-1.2957559856876018,0.6480125972380184,-1.3953747846120217,-0.162109375,-0.6787109375,0.00048828125,82.375,-51.0,273.625
-0.8355656651114809,0.02867253261167456,-2.111024596638457,-1.9007894293553413,-0.5428683556098246,-1.9063898192789446,-0.6630156577792407,-0.5913413250849865,-1.427283963349549,-0.9934701407663824,-1.905106110931288,0.84521484375,-0.4892578125,0.041015625,-30.0625,-2.375,-11.8125
-1.163593833668536,-2.2790761527878236,-0.7942854391189075,-1.5728706220924538,0.8444006044956642,-1.0644668555345225,-0.9504956314905947,-1.0400115952224658,-1.4333732684918974,-0.9998850079272537,-1.904671738612289,0.85400390625,-0.50439453125,0.04833984375,-16.6875,-1.5,-16.125
-0.08482057903129947,-1.6801527566353722,-0.08241852518303965,-1.0921745661376498,-0.09392979308510903,-2.8477645000190446,0.019739481671773414,-0.363011626628016,-1.4356921116415682,-1.0081271322466288,-1.9043117016977973,0.875,-0.4736328125,0.0400390625,-5.25,-1.5625,-19.375
-1.3286224239663909,-2.9710227487995695,-0.6432677869848348,-0.497265095979417,-0.32348533705057836,-3.467304866437012,-2.1789884867669103,-0.07907583720425747,-1.42853482627447,-1.015486357216741,-1.9116205001496973,0.9228515625,-0.5283203125,0.23974609375,-2.6875,-1.625,-19.5625
1.1466409951241816,-2.722679650501517,-1.2311908728709235,-3.325172861595616,1.984386284263843,1.8785153903619438,-1.8083030090591048,-1.8240155503929216,-1.4073964802351806,-1.0212299355602572,-1.9294718094106933,1.0830078125,-0.65234375,0.6064453125,-1.875,-5.9375,-20.625
-4.169179039203959,3.075455194510436,1.9487422780150583,1.211234202059574,-3.0635658854816414,-5.017718330503142,-2.051486738788316,-2.562183543619734,-1.4368591113153368,-1.0258033097952928,-1.904726305302404,0.6259765625,-0.5849609375,-0.46240234375,-4.5,-7.75,-20.0625
0.8286354507501212,-1.1344417029885554,0.8882068717586936,2.2398762296338224,-3.0012383968585077,-0.3433800638063462,1.0961484475560692,0.8640867498214453,-1.4189679620243585,-1.03630378151165,-1.9239214562528828,1.09716796875,-0.3955078125,0.57080078125,-14.1875,-5.0625,-18.8125
-2.3653733720265975,-0.6011463650699056,-2.841542250803341,-3.689481129478105,-3.074835444668503,-3.570078631473051,-0.8515179785703318,-3.680223896522742,-1.4428923571365635,-1.0382136926407424,-1.9065963112037645,0.6572265625,-0.6875,-0.318359375,-10.375,-3.875,-19.75
0.5570985572392483,-1.1683641342319375,-0.3588454937651627,5.032506140141034,0.33231875161016805,0.3855316508434576,-2.993816409146957,0.5582606535532201,-1.4239677372328434,-1.0481552373114198,-1.926816330408423,1.080078125,-0.42041015625,0.51513671875,-12.3125,-1.0625,-20.3125
-1.125248672722977,-1.3969401284661447,-1.739618163691305,-5.301563972157876,0.4083974058624717,-0.6033120053199166,-0.386069772812413,-0.8248624857165959,-1.440619990471065,-1.0489115230380457,-1.911834480326725,0.67138671875,-0.73095703125,-0.298828125,2.8125,-0.375,-20.8125
-1.118223996496948,0.23390127178104322,-1.2781285347243012,-1.0819895790864722,-2.3497014226421324,1.6411786411159914,-4.574843554083366,1.2004050757703735,-1.4152917524822506,-1.058303955029376,-1.9347443821172725,1.087890625,-0.392578125,0.51025390625,0.5,2.75,-18.0625
-1.2841100004575987,-4.511101915216493,-5.264630634269348,-5.681203405488355,3.620300757484155,3.1729313342194727,0.7869676109105467,-3.4007655557272494,-1.4344909302124107,-1.0582755118605611,-1.9177624974530207,0.66552734375,-0.6572265625,-0.375,2.875,2.375,-14.125
-1.5171475696613435,-1.6068406559765895,-1.463204136687869,-4.390955729347471,-6.288401443188659,-0.5151014969764792,-0.9681337165205195,0.5373672147468455,-1.4150639370948048,-1.0640144957498758,-1.9383637406266832,1.1015625,-0.41259765625,0.46142578125,-9.5,3.5625,-8.6875
-2.938356877828302,-3.322754597001863,-3.079763066150986,2.398278184521066,-0.8852203317337503,-9.758208984486995,-7.349037145800245,-1.1900015386086955,-1.4191986361098403,-1.0636045448799736,-1.9384595175907442,0.966796875,-0.56787109375,0.060546875,-10.875,1.3125,-1.0625
-1.7370401720384738,0.3177994784132647,2.0995397635929822,3.537222944701416,1.2867234982423865,2.132894978785884,7.746513378845086,-3.197045254267046,-1.4238636141524144,-1.0605166749360992,-1.9388816904817583,0.890625,-0.54443359375,0.07275390625,-14.0,2.0625,5.6875
2.1029277564944198,3.980076102405194,-0.7330564227481764,9.67593514307116,1.5627015876013948,0.394205000567447,-2.2611825139407586,3.7976294853454498,-1.4339693842290988,-1.052922996907286,-1.9345695614973148,0.908203125,-0.5888671875,0.0224609375,-16.8125,0.0625,17.375
1.137192073768458,-2.473691120878714,-3.998521552005479,-5.899745850325961,2.818720386247979,12.854028383723769,7.191901891871925,1.9381464625422138,-1.4479100745097522,-1.0402055737469291,-1.927013933752932,0.90380859375,-0.61083984375,0.00439453125,-18.5625,-2.5625,32.5
