EMG1,EMG2,EMG3,EMG4,EMG5,EMG6,EMG7,EMG8,Roll,Pitch,Yaw,Acc_X,Acc_Y,Acc_Z,Gyro_X,Gyro_Y,Gyro_Z
-0.19528985454263234,0.9500152548017095,-0.12580062597239816,0.07063401727963882,-0.5463945723187619,-0.4586867696137203,-0.21082855773293152,-0.25225832330564346,0.391982946820904,-1.2227972450545568,-0.57408231780864,0.91943359375,0.134765625,0.310546875,0.0625,0.1875,1.5
-1.79662867127972,-1.4073620326848268,-1.0118571919646207,-0.8719647856929732,-0.8553138417213803,-1.7247784665333898,-1.532779337059168,-0.41104929387830946,0.3906797733039095,-1.2227945795976365,-0.5721895504612595,0.92431640625,0.1279296875,0.31689453125,1.3125,0.8125,1.625
-0.19463406468901406,-0.20699598993346385,-2.1011133418952475,-1.5457047489300921,-1.864435733881185,-1.2077233145649313,-0.8340340351620578,-0.4711664304572942,0.3890567011310086,-1.2224576225656074,-0.5696753925424897,0.91748046875,0.1259765625,0.32421875,2.25,0.4375,2.0625
0.8199343617221915,3.0756561628136803,-0.4046347214274898,-2.358550957372272,-0.5356789684741897,0.7371693257259255,0.05523674871333925,0.43318027461342484,0.4009235621228927,-1.2248741942860195,-0.5792970234040458,0.65283203125,0.1875,0.04345703125,4.3125,1.125,0.0
-6.324387721268129,-19.859664161124687,-9.703261390407153,2.527224508988443,-1.0594692471301506,-3.310361044830322,-2.141662209483721,-2.702009112824686,0.3717028640362087,-1.2169159488904766,-0.5508944548193879,1.05810546875,-0.0927734375,0.83837890625,2.1875,-0.125,1.8125
-2.929648726844242,-4.255409354612352,-4.1186972478607045,-0.18050428195981688,-2.4979857558576324,-0.9576723688249651,-1.6847755116627177,-1.977454243225364,0.3886793382148603,-1.22849075640404,-0.5650505840019798,0.68701171875,0.12451171875,-0.31494140625,4.9375,-0.5,1.4375
-4.471122486686699,0.6714495883420427,5.137201712414904,-14.30941662894364,-19.876582155496116,-4.5685801516408535,-0.6048688728792811,-2.8791773713974727,0.3776855801030836,-1.2187574475241831,-0.5545536302378843,1.1337890625,0.197265625,0.822265625,-0.1875,0.75,1.9375
0.3087717083911573,0.434526196600529,2.7979228918297436,2.26784504103953,5.1775893276696205,1.0597104627436307,-0.6775098910210976,-1.0060171321380775,0.3903375863646618,-1.2289860009193323,-0.5644906852781788,0.705078125,0.07958984375,-0.2294921875,5.625,-0.6875,1.0625
0.652013720326331,9.038007240970861,-2.935432356910819,10.920257687772711,-10.759392750179568,-4.691164434364979,2.849483188538688,0.6859100206512853,0.3748092526707836,-1.217612083399762,-0.5495983814284634,1.14453125,0.162109375,0.92041015625,0.3125,0.6875,1.625
0.29565389409948056,-0.7826979230990161,-4.686079088888735,4.627438917430348,-2.149694129525451,1.8505442258178653,-3.1729012833469254,-2.559152347269674,0.39476188767848297,-1.2300991952589941,-0.5664631094578351,0.703125,0.14013671875,-0.35546875,5.625,-0.75,1.125
-3.653995937998172,-5.62260224595777,-0.2364117764688871,-6.470585100489166,4.664799184600302,0.22020589777321212,-5.607764541436041,-3.6081356251999064,0.3717875376497006,-1.2169156048923295,-0.5451812127679292,1.1591796875,0.111328125,1.0283203125,-1.875,0.625,2.25
3.354464399811051,-14.326494295444672,-1.4825955889659956,0.07225486458670433,6.062820888331778,0.9975748234546203,-4.481415124062766,0.5928045392143688,0.3975196012026483,-1.2300313504625846,-0.5721228521105206,0.7958984375,0.30322265625,-0.478515625,-9.875,4.0,2.25
-1.2812205676046864,-34.82773598069023,-11.228749542289263,-31.4686279298777,-17.37491343303538,-2.8983366631093292,-13.601636535726811,-5.542204106044018,0.3647486610283846,-1.2109542798818465,-0.5498752784634432,1.1923828125,0.212890625,1.02294921875,-29.625,18.75,3.8125
-2.274733354472072,18.026464271262736,1.8034191488338278,-15.215934662805793,1.0697287271025286,-7.264573567152495,8.943429272519642,2.021731444690779,0.3498971882270465,-1.20012749073804,-0.5574256304671148,0.96630859375,0.29296875,0.080078125,-69.125,44.1875,-7.3125
-6.750276765504303,52.51764210967616,11.74547757198155,22.767087299922707,-6.559397803547302,2.7318431395774145,21.971802959610507,4.343015724416056,0.3017183947927668,-1.1755538748110577,-0.5460707518470037,1.1064453125,0.15185546875,0.32568359375,-108.0625,72.375,-10.875
5.657158978645087,-3.2120891364640833,1.1575349296491073,1.1343649707286485,-13.760586076493356,-5.723344348823988,-8.238355470686324,1.8992358206465239,0.25819094182486435,-1.1370691520627665,-0.5338446639279838,1.18505859375,0.1396484375,0.4462890625,-92.9375,111.0,-16.9375
2.4061410115584483,-44.00612486896555,-9.81945386199209,-8.19088580977175,4.777420872895684,0.9922054804052283,-17.027984690119425,-3.040857086156581,0.22191554737766,-1.081982872711034,-0.522121084077406,1.18310546875,0.07861328125,0.71875,-73.25,155.4375,-24.3125
-1.5108846514378822,-34.769734804906264,-9.93113472664939,-11.202019158908598,4.830908074860169,-3.9975341094630856,-9.00825450080545,-5.447139118699297,0.18693848330763232,-1.0100675781684514,-0.4979917364761978,1.1728515625,-0.138671875,0.98095703125,-37.5625,205.0,-11.9375
-11.315268535550775,30.179109169460574,2.4628171388539832,2.742085099749598,7.29286333586074,8.954785019571833,16.443419339869905,-2.6741699458896115,0.16254458127333835,-0.9185129979577424,-0.4708512843417233,1.07568359375,-0.06396484375,1.12841796875,-3.5,261.9375,-4.5625
-0.5541282210589237,12.739100109309529,-1.052855796470125,6.597975154230881,3.8609586724097267,-0.9129966356407896,-0.13761072477446204,1.3843954627533335,0.1461967296910134,-0.8092536986825459,-0.4512084482093468,0.8564453125,0.10888671875,1.19677734375,-3.25,310.0625,-12.5
-3.9582604371644243,3.2170563708812927,-1.6451399506952367,3.7266404029896285,-5.48669390940439,-1.5962925284249045,-3.1353145012067305,-2.3202548745463494,0.1317704458164271,-0.6902001772588802,-0.4370544094144171,0.666015625,0.13623046875,1.1884765625,-13.5,337.9375,-17.4375
3.748765754366421,-11.257280704134125,-2.3802070604783028,0.5140782778973346,-3.1498471392680107,-4.061023869232708,-2.9139971107263776,-0.8971054396934053,0.11848443573994175,-0.5625022443737384,-0.4218019713493787,0.55078125,0.1435546875,1.173828125,-12.4375,365.0625,-10.3125
1.8688402864461602,-1.0289505513594013,2.8298486308126773,-3.348438401721146,4.003853328680102,2.314020242800097,-2.758250181930945,0.7534538011864426,0.109874830263799,-0.424388994888864,-0.407581351483698,0.3740234375,0.0966796875,1.15673828125,-4.75,395.4375,-9.3125
8.115062801283809,-3.0603230726329524,1.3968638223330627,-3.2154934667577213,-3.0166501780399932,-1.305122465307401,1.482489510278819,3.5576512031606247,0.10736129000855207,-0.2795115705286951,-0.39199348573255577,0.24072265625,0.11474609375,1.09814453125,8.375,416.625,-3.1875
-1.97480061562533,2.9824316540862683,3.9523682112983787,3.9053914143992072,5.49099002171495,4.2645773924459505,-0.4483877120958587,-2.463895967189841,0.1136295185581374,-0.12883980761084854,-0.3731294769282525,0.05078125,0.072265625,0.99169921875,29.4375,434.125,5.0
-5.591957757304379,3.19694684267628,-3.0226209590179884,-4.9289473784432385,-4.038845152346425,-3.0963285473028503,0.916207901038216,-2.8564098704318432,0.12628457706054408,0.02319795826050009,-0.34956152175001753,-0.0986328125,0.0380859375,0.93994140625,41.4375,440.3125,14.9375
-2.273376565726876,13.511673524910549,-2.19998838096879,6.083657692702264,7.861005203271898,2.591132813281698,2.9689061672241532,0.769073898030862,0.14433696933828766,0.17172754305221338,-0.3228738856068373,-0.2119140625,-0.0146484375,0.828125,46.3125,431.5,18.3125
1.0090788491195362,-13.014843482767624,-1.2533717936126583,2.4726973960256964,7.704479773073828,-0.507905656819929,1.8268147328137252,1.2619843285603538,0.1682442968420873,0.3147001341765201,-0.2924557484740651,-0.3056640625,0.08837890625,0.697265625,48.25,417.1875,20.3125
-3.282072407033632,-7.706843004512367,-5.128730329900881,-9.540536740086097,-18.321795892452478,-5.5882287785526845,-1.7629184307855772,-3.446414900159512,0.2032940980823856,0.44659882016631497,-0.2560973006125338,-0.35791015625,0.1171875,0.66845703125,61.75,389.25,25.6875
-0.7524288654889348,11.147010554510633,5.243896681293316,-1.1368824590663853,-2.222379714838023,-1.4410836296860763,-3.35024119783265,-1.5464370603623556,0.24001686517415105,0.5652396612581113,-0.214221355752238,-0.359375,0.11279296875,0.64697265625,47.6875,356.1875,27.6875
-1.372139346622131,4.717942203334851,0.348481425282758,4.196792056137226,5.339867988162643,0.6010577999043014,-0.2957661652689894,-1.3500171915302697,0.28171029190685937,0.6692068450537724,-0.15979071137000098,-0.33349609375,0.1005859375,0.607421875,30.125,322.75,46.4375
-5.920930531455139,-16.53863416180598,-6.633172637961841,-6.8736430497996,-3.852208091636458,-3.818599446315033,-2.367990431597845,-4.2606361519821645,0.3281556170353421,0.7583203745096141,-0.09587097324370852,-0.40380859375,0.1318359375,0.54736328125,13.4375,286.8125,55.4375
-5.237790222116796,-16.63550964099021,-7.727556537420044,-4.460724432128313,-3.5969399622403873,-2.072882126570807,-3.902902422359278,-1.997518234433924,0.3850405308618203,0.8290220422059206,-0.024892118769693963,-0.380859375,0.12939453125,0.521484375,18.9375,242.5625,62.8125
6.34606728518679,0.5665966199053821,3.9435367566619957,0.27749541621141005,-4.492704681051646,0.06807517786312567,-0.2823943988435522,1.7251891814794194,0.4461144313003175,0.8833210456353804,0.04681473875329047,-0.322265625,0.10205078125,0.5068359375,21.0625,200.0625,60.5
-1.2652801604015704,5.0494054668413435,1.29344925662686,-3.002058470288644,-4.29843728548877,-3.82270982056196,-4.181238997359283,-2.7423540542380445,0.5034347313215104,0.9223075694530528,0.11521472395706114,-0.39013671875,0.17333984375,0.48388671875,10.8125,157.8125,56.5625
-0.756836835812903,0.07800244631312508,-1.2992681335973826,4.590139992330248,1.859543663157612,-2.2950100601296013,-3.418628767190647,-2.3514272129559015,0.550199286268688,0.949165273169806,0.1734289773424349,-0.455078125,0.193359375,0.43017578125,0.5,118.625,46.5
-5.062226955458498,-2.707456341921213,-1.9551303063895236,0.51065902808299,0.8380142047961989,1.7132317164833442,-0.8166851578294462,-1.805047073202811,0.5843762414557854,0.9630000440799412,0.21971434796921774,-0.4580078125,0.24267578125,0.4052734375,-10.0,82.25,39.375
-0.6526572643393629,1.3519678677276827,-1.9299514904444184,-7.568327289018216,-11.390078324471279,-3.8265688022522433,-0.7669150212058089,-0.25159247851066285,0.6055848219353546,0.969799677898446,0.2522740793138233,-0.505859375,0.2578125,0.40087890625,-15.1875,52.875,29.25
0.3951024756361946,-13.205312685631434,-0.8151322331015645,6.817371110637108,8.190745288260247,1.139494665969343,0.4410929717035148,-0.9313371609744804,0.6164717550045503,0.9746034430175482,0.27285274961303857,-0.619140625,0.2822265625,0.4111328125,-17.1875,33.875,16.9375
0.09743656939541889,4.6957930126543825,-5.364644792084589,-9.061497898241043,-2.081083764002952,-2.812693461029059,0.2752616522512261,-1.069690783658868,0.618110236243558,0.9773822571051891,0.28319113236819604,-0.67236328125,0.2890625,0.40966796875,-19.6875,18.875,7.3125
0.47914224591579313,2.601074627668604,-0.475919105400687,-0.10673591063365086,-0.1768458844687393,-1.1894470900323109,0.3194340476142875,-1.1813473089311117,0.27441034791454233,-1.2023075772316163,-0.2416619371621312,0.91552734375,0.09619140625,0.34765625,1.8125,0.4375,1.125
-1.137244206087664,-1.4278771511180215,-0.08366733396152792,-0.7284207213425395,-0.8512741471544512,-1.0815941663415096,-0.8322596445732751,-0.8790275636581992,0.2739011691050255,-1.2019676576023348,-0.2397469288953588,0.91259765625,0.09326171875,0.34521484375,3.625,0.8125,1.5625
-0.0994330652340028,0.7137290643554791,-3.0783164768757527,-1.7700100842920077,-1.2789612455035175,-0.09837220792999289,-0.539028645666883,-0.1884314785824689,0.2667337093115049,-1.198589178878832,-0.23194906122179698,1.09130859375,0.0830078125,0.5478515625,1.875,2.75,3.0
-0.709363321713169,-6.385032235035331,1.3264295231617775,-0.5613514998393562,-0.8484530856913683,-1.9705700873736194,-1.2793010103840237,-0.9395351550631081,0.2862567485036401,-1.2075964358328952,-0.2478195703707469,0.65380859375,0.23291015625,-0.224609375,6.5,0.5,2.0625
-1.434348692456986,1.7077090933880357,-3.428747614425908,0.27717760884236764,2.221805078458361,0.7130509531502724,-0.20679614991976103,-0.759414700961815,0.3026996353242718,-1.2108741811001758,-0.2614695646352537,0.96240234375,0.29296875,0.15234375,4.5625,-0.5,1.75
0.3382385648986754,-2.831176867701534,1.9531709322395538,3.9659910240432183,-0.4644505366099637,-0.9260215805802927,-2.6899159701140025,-1.3762949901490555,0.2825149763871778,-1.2028420757864422,-0.2396699375133481,0.95166015625,-0.0927734375,0.7802734375,8.375,0.5,1.5
-1.6607206243178219,-0.6577404697970025,-1.5034692941884604,-4.735204851621244,-0.0212870021478005,-1.4244870047512435,-0.8178594422774007,-0.4537292840679704,0.3045821446547005,-1.2118453600367007,-0.2585268994727913,0.8857421875,0.29052734375,-0.14453125,4.5625,-0.125,1.75
1.0462512626541511,19.671287147387805,3.3798999510386727,9.806073902818808,0.7443877560703787,1.7678581583669168,0.17731134026221707,0.02734406033391815,0.2842374825828718,-1.2031930913079862,-0.23734902466663926,0.95166015625,-0.0859375,0.79443359375,6.5,1.1875,0.875
-1.241599427320265,-15.368353742380897,-2.5727751248834574,-5.414486314461074,-3.400842244503491,-2.5753325317967684,-2.298920415720045,-1.4165797739114558,0.3048751827703923,-1.211190571199658,-0.25556563238833085,0.89501953125,0.294921875,-0.10107421875,2.4375,0.3125,1.6875
-2.455796935032648,-10.920789393885542,-11.282191962960933,-3.8431573259499014,-0.8968539055510937,-1.0420640905059906,1.7729419150794004,-0.6688093392540224,0.28541051887043395,-1.2032200642878657,-0.2364241578970084,0.93505859375,-0.06640625,0.7373046875,2.1875,1.0,0.875
-1.269778883317751,0.598925875569772,-1.6736781670401084,-1.7205411556813817,-3.8815575334373262,-1.7315063192336735,-2.402820495765549,-1.0234620609600245,0.3041784759531162,-1.2089511731660247,-0.2572286403796427,0.9345703125,0.353515625,-0.00341796875,-10.125,0.9375,0.5
2.420843974245028,1.8440609970949182,5.910653822144435,4.327406708408184,-0.9283411620270445,-0.1241772408609054,-2.328192871412,0.7777098826337292,0.2899111354254463,-1.2029281889045431,-0.250490711474462,0.89990234375,0.029296875,0.5244140625,-19.9375,5.8125,-3.0
0.6728641826751058,-10.226922764349853,-1.859145176762424,9.444382182160886,4.1022014896146635,-2.064811755003274,-4.421273484860533,-1.5827381644583542,0.2908754604372471,-1.1974831733115143,-0.2667215534092567,0.95751953125,0.3125,0.3408203125,-45.875,11.25,-7.125
-0.10809187894054965,-3.3188718715653565,-0.31954726653681,-16.78273948735871,-0.5577463086662717,-4.264637041779909,-1.0104130247551582,-1.4697025551781229,0.28436004550314026,-1.1878171320132838,-0.2842721203251193,0.95654296875,0.240234375,0.38720703125,-68.5,20.5,-16.9375
-3.574584997620624,10.762105270077807,10.182867668590086,10.078562266226015,1.0674415490868365,0.7058045119387324,4.198070757902314,-0.873337068412147,0.27571839662633674,-1.1693365433815848,-0.30081916594594343,1.01171875,0.18505859375,0.4716796875,-69.8125,41.625,-27.5625
-2.4597092542910906,2.79899340416795,-1.3246546619361066,3.2525982970962994,-6.665431062079646,-2.271184358324444,0.17215317195804763,-1.5469534521657817,0.2745926466119029,-1.140163540211493,-0.3208899034119552,1.0380859375,0.2509765625,0.55126953125,-58.625,68.375,-37.0
-1.7083322336831679,1.055302056245737,-5.234888790216653,-5.14298883826664,-4.710179103588604,0.39964942893256394,1.286215512643307,-0.46240406299647824,0.2683569063612247,-1.099657608181677,-0.3370719619864585,1.0380859375,0.2548828125,0.63330078125,-62.0625,98.8125,-43.3125
-1.6533793565522852,-17.898189182095827,-6.711201826433338,6.897142725625121,6.254473749915362,4.357397333502031,-3.6086154270752036,-2.1791813057293146,0.250012214400496,-1.050389775048994,-0.34553622546346424,1.02392578125,0.22509765625,0.73828125,-74.25,131.25,-46.3125
-2.099536198826779,4.603329354877013,-6.522512000759852,-18.537225059298404,-11.457390218075902,-4.981742980508993,0.3697330239480588,-1.293115419392054,0.2327273698960648,-0.9878929495598308,-0.3542699272188401,0.99951171875,0.18115234375,0.853515625,-70.6875,167.1875,-55.1875
-2.316862039180819,14.826386569284683,-0.5746078591224306,-1.9419734209904305,1.999759400618753,-1.3515816898042396,0.10870378176787782,-0.6614649217773527,0.21819988847439695,-0.9135407670136404,-0.3619619291987967,0.95703125,0.11572265625,0.96484375,-58.5,201.8125,-60.875
1.785023731609837,-0.570158153264789,2.9817528228248995,8.54456347851515,-2.7863168598746935,-1.665910476317451,-2.4834076167880372,0.39393277358192863,0.20899166428371652,-0.8271745613691999,-0.36601122809703773,0.95703125,0.13134765625,1.0498046875,-34.3125,238.0,-60.25
-3.1211208537948147,-12.18185167739432,1.940980784624569,-8.045087760829148,-0.1245121058000685,-3.0774480962658486,-8.687424933546206,-4.926211677863877,0.2020181211376683,-0.7291459468651961,-0.36703774570061537,0.888671875,0.08544921875,1.10107421875,-20.25,273.0,-60.875
-0.7022937001071876,-8.616398488202659,-0.36597665257818346,3.1793201857437086,1.9175473545488397,-0.6899062109214233,-1.0557510148793283,-1.7229348824325112,0.20053931702508127,-0.6211006363732094,-0.3636655887633942,0.837890625,0.09130859375,1.14208984375,3.4375,305.125,-56.375
-4.217570283252603,-6.767167449903198,-5.868199364436782,-5.598952393284127,6.683665989525388,2.1604690721073165,-2.20516139831295,-2.7329879564225945,0.19845210962349571,-0.5022559630702521,-0.3587855441603121,0.66943359375,0.13134765625,1.1455078125,3.125,336.75,-56.875
-0.40656053605842213,-15.566795818929945,-7.22710780902519,-0.13651567745127538,-10.513910586624158,-3.610454033819004,-7.824475325022012,-3.6699921102401363,0.19035883867408146,-0.37703788383945225,-0.3493550989088258,0.5986328125,0.119140625,1.12109375,-10.3125,359.625,-46.5625
-0.7463729247907773,6.08511174895333,0.9653625121204557,-12.056301235420728,13.608782253249222,2.1672976996149522,8.561497362326847,1.084630491739997,0.17902823480253535,-0.2452153752425587,-0.3364300895062371,0.48876953125,0.03662109375,1.05712890625,-18.75,381.9375,-36.125
0.5529002833935387,3.2251061660576417,-1.9182790666424714,5.98324447573794,-5.19172249782,1.6562124821220916,5.487783734503089,2.966370978828224,0.17167197497049208,-0.10838399980614698,-0.31779125643933004,0.3349609375,-0.02734375,1.00830078125,-8.3125,399.25,-18.25
-3.7512948578200653,8.44674003325311,-1.4494881979929615,-6.277492277285188,-6.5231186715564595,-2.625830432158107,-1.9396134098337159,-3.1390131533917014,0.17169733191595676,0.030448402761957705,-0.29549513930949944,0.16552734375,-0.05322265625,0.904296875,6.25,406.9375,-5.5625
-1.6874798418281203,10.593710209985154,-3.0505572245489896,-2.8418202438669873,-4.052856434829048,-1.4139918297477518,-4.791324001808018,-3.830016021008745,0.17572945639880974,0.16912895870939082,-0.2714699896998637,-0.04931640625,-0.03076171875,0.80517578125,7.3125,405.125,-1.3125
2.538306534951299,7.679662129202752,4.222145968168182,4.3622324753759685,0.4253692620775257,-0.6286304643372136,-0.19741754980856502,1.397030762968678,0.18493268835749552,0.30314755648587743,-0.2429478313304845,-0.1923828125,-0.01611328125,0.70654296875,9.8125,393.125,9.8125
-1.7401222982045503,-9.265334352526466,-4.843920141188922,-5.183341799582785,-5.655339298176301,-1.158934203145138,-2.3682972729360077,-0.8490935647910482,0.20071476402535174,0.4300746248781056,-0.2072691662466948,-0.25732421875,-0.017578125,0.60791015625,10.6875,376.1875,24.75
0.2931941729260673,-11.517527886853507,-1.4929134004499471,-1.4776390401753918,0.4080002731225777,0.1644712829623991,-0.07143101718369384,1.320584472852615,0.22509917760761056,0.5458804466847418,-0.16752584934783227,-0.32177734375,-0.02880859375,0.5625,18.5625,346.25,29.5
-2.5320287768054297,-2.2339708495801607,-1.6467565701279476,-5.194548354970127,-0.5867012247742822,-2.038170616640818,-1.0791702503378542,-1.4588852481536234,0.262941783268772,0.6496662765291933,-0.11968744206577435,-0.3076171875,0.0693359375,0.5068359375,32.0625,317.5,38.6875
1.4810500470602215,3.317547974387147,6.73244283752641,4.938474743207961,-4.742009842423116,-3.4265868642190203,-1.65173476991774,-0.5237412432500307,0.3076005008719224,0.7394702767661876,-0.0658810643834751,-0.359375,0.11767578125,0.48779296875,29.625,281.75,41.0
-1.1231418019290476,7.360380886530598,1.4296692786414937,-0.7325508746979422,7.683905540785309,-0.763083471543106,-0.7639980675199136,-1.138181654209548,0.35584841303271586,0.8158187357841689,-0.0084333447672824,-0.392578125,0.09619140625,0.4921875,23.75,247.0,40.0625
-0.6437473603161382,2.254711595032546,-2.9102728343324387,-4.443961222374725,-8.480813386411512,-0.8344728686178388,-0.6976436033838175,0.8289973264107361,0.4091820721704201,0.8796003256179974,0.05385695609048538,-0.38232421875,0.11376953125,0.48974609375,19.875,216.0,41.6875
-4.454754995532623,-6.402066649488419,-1.8614485000283443,4.235779882112401,1.748288014472403,-1.0016026710392874,-0.3574346475833147,-1.831975984834864,0.461306402894423,0.9304034596906852,0.11688998810744812,-0.42578125,0.23095703125,0.39208984375,6.625,180.625,38.5625
0.9116288426776067,4.906064864156363,3.252961748147597,3.160150758340931,-2.0653650722962142,-1.0436383230216901,-3.4617222438116455,-0.6981371580908615,0.5074648289109116,0.9692807518602916,0.17566639315343827,-0.5849609375,0.32568359375,0.36474609375,-5.6875,144.3125,33.0
-0.33334373325322875,-4.20734344118261,-2.86443592629889,2.0375772238833196,8.83271212507508,1.840627507087919,-0.43287139731994234,-1.337403697673859,0.5471519139650539,0.9975823450600628,0.2248918236580725,-0.64013671875,0.32763671875,0.3408203125,-4.875,108.9375,25.0625
-0.0020798833486483127,-1.4862730943431102,-0.3365304592936579,-1.3624383618444178,-1.1810902244360915,-1.9782088905732016,-3.7879692167258017,-2.1712772857682947,0.20737930202922414,-1.098663348276924,0.1981517155263297,0.87841796875,0.09375,0.435546875,11.625,-0.5,4.8125
-1.1116282799734996,-5.748870023441365,-2.925409135854649,-1.8135314395274844,-0.6500319672206378,-0.2119747478227524,-1.6844242832506924,-1.6873646844951342,0.20870135400859446,-1.099142501245178,0.20168097467220192,0.892578125,0.08544921875,0.443359375,13.1875,-0.4375,4.4375
-1.1149768952430328,-1.1715278895168924,-1.119372960939878,-0.9225307933126343,-0.8322561156709941,-1.6283624351023016,-0.48344988374933684,-1.0935718374103602,0.2100880390746656,-1.0980361497851066,0.20529637149459454,0.77880859375,0.10205078125,0.42041015625,12.5,2.5,4.8125
-1.1388782485078253,-2.974244497665805,-2.0039501396496164,-2.9373429649446074,-1.1225757674862415,-1.17342633140373,-0.8508369016895454,0.18288990758192764,0.19761685875701704,-1.0916750232287131,0.21944519550118147,1.02392578125,-0.06884765625,0.87841796875,8.375,-0.8125,3.625
-0.7909200312090585,-1.1557130058064355,-2.619664636222444,-1.7891898752669615,0.16298028622356658,-0.34359006609586024,-1.1126018082419216,-0.8748034786167589,0.20651894996624204,-1.1056556870116756,0.21400936984812646,0.646484375,0.09423828125,-0.3125,6.625,-1.8125,2.75
-1.4520069203128205,-3.497949469547273,-2.016519813076244,-2.946275022598917,-1.652529492042061,-1.6214148283496095,-1.3713744965274166,-0.7823295454465138,0.20120462503493314,-1.0934790815815325,0.21909844891645505,1.103515625,0.1669921875,1.12744140625,-0.0625,-0.4375,2.75
1.6667652789005947,7.733470243183766,6.452924193218962,9.309135633754174,2.7986101524440943,0.7344341807919812,0.6505665295205434,0.9736193338865412,0.2072456537188048,-1.1074238428811511,0.2155168793818573,0.64990234375,0.04833984375,-0.2978515625,4.6875,-1.9375,2.25
-0.8119291699281829,-0.08912585506436022,-3.7873415701346027,-11.322361090661667,-5.508905698449152,-2.7847791970701135,-2.0690858931239635,-2.4127089547960594,0.20163187817707487,-1.094698891987172,0.2202997602445588,1.099609375,0.16796875,1.142578125,-1.875,0.0,2.1875
-1.2912455896410944,-0.9029756540686527,-0.6626604400872089,8.665549725697455,2.7165473359082086,-0.9355134873096462,0.008711225324491069,0.12921126098053837,0.20798752541116428,-1.1082933303758649,0.21514492130025253,0.64404296875,0.06005859375,-0.3095703125,1.5,-1.4375,0.9375
-1.1341423042109062,-4.7797258175799415,-4.974769996928305,-6.20601551310365,-4.260875911089595,-0.7416443576387008,-1.5130971795622599,-1.8103378880488412,0.2013657892893722,-1.0948902826966178,0.2196781126383104,1.099609375,0.14599609375,1.17236328125,-4.625,0.125,0.25
-0.8641349811241558,0.11735641158089184,0.17882681373820383,-2.2565495385914898,-5.226843173061777,0.9016226918909621,-0.10986568844069836,-1.1460751947492929,0.20950266024379702,-1.1095287444857491,0.2121462864386599,0.64501953125,0.0830078125,-0.35009765625,-0.5,-2.0,-0.1875
-1.983830048210381,1.372775475630245,-5.326812765073062,-5.355698836155648,-1.4715058517696618,-1.0224024943295003,0.5653072648164899,-0.33744979302257255,0.20096728344457532,-1.0958279224920155,0.2163801300024016,1.09765625,0.13818359375,1.173828125,-10.5625,-0.125,-1.125
2.326884348504551,-3.3122614798124883,4.6920535727503765,7.936274343492696,10.332201834006163,2.907786503888675,0.27263334838154746,2.0366157922245893,0.20305905270612853,-1.0937702467468031,0.21000082480271734,0.76123046875,0.173828125,0.43603515625,-12.9375,1.375,-3.3125
-2.0863674791834845,-1.5780291862037465,-5.705320966869869,-6.484766479327322,-8.008222254000401,-4.757911950127299,-4.102156868926182,-4.023715433725298,0.20454890356660274,-1.0947217816386858,0.1983260900792666,0.93994140625,0.16455078125,0.38134765625,-28.5,0.25,-10.5
-1.029704234589412,-0.5792731815316826,5.869671327078431,-7.858223636855186,-2.44540203132762,-0.5005188717099837,1.3980706436804087,-0.2965129614937619,0.20823049884461256,-1.0913186324525812,0.17260417095307395,0.98193359375,0.22412109375,0.41162109375,-59.0625,8.0,-27.6875
-1.266423661825655,-0.12995909738536776,-4.732413367047693,17.698062579059254,7.68909335536386,0.8592814983465434,0.44097304880046617,-0.4292233050756269,0.21713435446990015,-1.0793623842048679,0.13229183485975307,1.0341796875,0.310546875,0.49365234375,-83.0625,25.1875,-48.125
-0.5726998587909146,-7.838694786120588,-0.34367366632429486,0.3316611816488433,-10.383932424024703,-12.690034784360279,-4.82894312037552,-0.4449581371949781,0.22232180180657496,-1.0567354364465051,0.09012682880799834,1.0654296875,0.3564453125,0.55615234375,-98.6875,52.5625,-57.0625
-2.000187460999505,1.2512997839844207,-0.5395565800081616,-10.343332087652096,-6.63953385961867,6.749828884812764,0.5210836616239393,-1.7297368805161337,0.21061645916743413,-1.0237188521994252,0.0586932518210057,1.0625,0.310546875,0.65576171875,-112.9375,82.4375,-62.4375
0.08157500878920383,-5.483474569194018,4.225230734665647,3.807646035879481,-5.34906405158908,-1.7894030868417918,-2.65662812477969,-1.2022311305536835,0.2035665614171036,-0.9771786873069852,0.025664931179909988,1.06494140625,0.26123046875,0.78125,-100.625,119.0,-75.75
-2.720221079473452,-9.251655681767623,-4.704748875065798,-0.09839394498839661,3.5079809396298627,-3.503460234415615,-4.092344210558911,-1.7685913244134037,0.20598597285119924,-0.9164923603588744,-0.008246431025795316,0.97900390625,0.24267578125,0.96923828125,-72.75,155.25,-89.75
2.046753881669002,11.992860850443991,-1.4794933627507088,-9.889515055243024,-6.003739198025244,-6.9135654233621855,3.6907730172020714,2.7944530584596627,0.20859257055404287,-0.8432906265090762,-0.04048217170642816,0.9375,0.24609375,1.03662109375,-64.125,190.6875,-99.875
-0.8550494217825544,6.311140358837524,11.779321132510592,7.095929995043726,12.637308434033102,6.777589923507925,-1.639947708695906,-1.1934812976130846,0.20768687644842676,-0.7575569679219737,-0.06773438688625252,0.75927734375,0.27880859375,1.091796875,-59.25,225.3125,-102.6875
-2.354850871408397,-16.370694526130684,-3.523141930304017,-2.9561785619324494,-1.2369025785995766,-4.683467095619062,-6.0785663537651935,-1.8895541777085911,0.2054039005846171,-0.6606478523079317,-0.09243328907654902,0.7734375,0.150390625,1.11865234375,-51.625,259.5,-109.875
-3.4492532052971,-4.21805513582711,-1.0655140624466757,1.0381437238493136,8.447620008807576,4.46429040478525,2.6884150242519795,-1.8105249916916446,0.20611415194715596,-0.5514419422953521,-0.11244036041779744,0.677734375,0.11572265625,1.17578125,-28.625,296.0,-111.5625
-6.5073740697420455,3.930998423303644,-0.8712788671682962,1.5457365368762577,-10.67365999622301,-3.2172738085140034,-1.275214759947415,-5.7953577633,0.20983260906499449,-0.4331325435361013,-0.12487859739251675,0.5537109375,0.09375,1.18310546875,-3.875,325.125,-102.0
-2.5615173424703936,-2.3632128320388976,3.2691396105818966,0.0853017650996225,-0.8144358424756886,-1.5326998648745087,-5.104258595848363,-3.6089392183051765,0.21801077128990934,-0.3070419232987139,-0.12770229033593275,0.4921875,0.0146484375,1.138671875,24.1875,353.75,-86.3125
3.5521226915285045,-4.687472946503391,-7.698828076307052,-9.854881779374342,-0.5884322796391511,-3.549688809396815,-2.924186136740819,1.6331346272785234,0.22981778600181546,-0.17308135660070476,-0.12503130446615174,0.3603515625,0.05029296875,1.0400390625,38.8125,379.4375,-79.5625
-0.2410275847761624,14.251514204556297,-6.111807478443969,-2.145876602070236,1.8670683036231526,-3.390066822580628,2.934714240875835,-0.34174078391002466,0.2406711839374208,-0.03340729314865938,-0.1188369470851299,0.1298828125,0.0546875,0.93408203125,35.75,395.4375,-76.9375
-1.1777848331702343,2.1345973212206135,-11.480429203364457,-6.522812945335623,-7.754704601293658,0.7133927326616534,-0.6733071723939082,-0.7486141233137213,0.2505004958056923,0.10491666802664518,-0.10782741050432687,-0.07080078125,0.08935546875,0.80078125,29.0,392.9375,-65.75
-2.011630729146138,-15.704846565698741,-3.6203359043237504,-2.6509332069124296,-7.837985846646007,0.10279158378140976,-0.276785065694038,0.3878556202609447,0.2554661419175835,0.2390275857945049,-0.09404699171159532,-0.18115234375,0.10302734375,0.7138671875,8.6875,382.0,-58.5625
0.00542177893090535,-2.666354603655534,8.419253218575724,9.973963809120649,0.7326426841438506,-0.040543795477085816,-1.3834368999141307,-0.5353914904929727,0.2609612944560558,0.3666334524987126,-0.07659872065510277,-0.17822265625,0.01123046875,0.69775390625,3.75,367.8125,-46.5625
0.4821156684194032,10.03018583088117,2.645767907412193,-4.703735914716561,-1.620816242262322,0.21271552954787548,-3.58829010281165,0.43398363657019184,0.2706365871207631,0.4867550138055307,-0.05756954086456039,-0.27880859375,0.01220703125,0.6279296875,7.25,346.625,-42.0
2.281820002967763,9.849687485113114,-0.15515347453227327,1.5065972534240497,3.6701029492137436,1.407598198074459,-2.1606575677403885,-2.765192315902942,0.2889906385538548,0.5942897074903282,-0.03344143053586512,-0.36181640625,0.03076171875,0.57568359375,19.25,313.0625,-26.875
-5.386017188584017,-14.483515378840846,-8.756546303476524,-5.170513041492471,-10.725221262534342,-3.0030430007958895,-6.5096455987973485,-3.4438651789477146,0.3100583087676269,0.6866908023564849,-0.003168401095923429,-0.3779296875,0.099609375,0.5634765625,9.3125,275.3125,-11.5625
1.3197101157048161,26.036567513085764,0.9792305355659191,-4.39758346215257,0.9962232353993861,-1.6251524996619644,-0.24409485919309715,-0.3765992373232389,0.32913492732423777,0.7688790210486199,0.036257401943713616,-0.3232421875,0.11572265625,0.560546875,-19.75,252.8125,6.0
-1.4427504315741102,-6.107295954958855,2.0849643411533942,5.374191130476545,3.9110999965320943,4.05031648375686,2.618120089108468,0.4990089842737031,0.3537720275551761,0.8436849955556766,0.08424002381993273,-0.3857421875,0.0791015625,0.53466796875,-27.25,236.625,18.5625
1.434365964450895,-13.755176257915744,-1.2614092507234551,-1.9358602629983488,-1.962140221467218,0.7746098232828311,0.0708106089450078,0.30038541327170626,0.3924620657540508,0.9090417479467796,0.13661050948360765,-0.41796875,0.11279296875,0.4736328125,-3.875,211.9375,21.125
1.69204325019157,-1.6440383097321345,2.6013342783535256,-3.6304802097799582,-2.0268618732624275,-4.364568413076245,-2.2851097103161457,-0.08064368688283811,0.44084750008290136,0.9624262807207676,0.190049458069734,-0.51220703125,0.25830078125,0.38818359375,14.8125,177.1875,19.6875
-7.132198539006653,-3.426916505842611,-2.0530021905748628,0.9683408605872824,-0.8213838317106035,-1.806721110730374,-0.2588761564101994,-4.2454684544788925,0.4898047465680363,1.0000364641999646,0.24245649420862556,-0.57177734375,0.3154296875,0.3486328125,14.0625,134.5625,24.1875
-3.9736164111657537,-10.743492594018063,-0.9723966162846805,-0.5599397609080603,-5.759516755174152,-2.604116594988278,-0.4669428613192847,-2.4647948286660966,0.5320954432575706,1.0232019929758835,0.2942610932422757,-0.67578125,0.31103515625,0.33154296875,-8.375,95.0625,29.875
-1.1893264835546375,-3.512901974747539,-3.6243837725364476,-5.242157054867106,1.6303416594468079,-0.021680725662062805,3.9266181791784476,0.45735499144444963,0.561109436719267,1.0366259789582963,0.3343265945313931,-0.716796875,0.28564453125,0.30419921875,-18.125,59.8125,27.1875
-0.006852136904930339,-2.7918021553666206,-1.3968231179247885,-1.8227865403313022,-1.357226808224907,-2.257430274662579,-9.85524814248839,-2.253753551759143,0.30623106898337704,-1.2495347384101123,0.014819461894209626,0.92724609375,0.1064453125,0.29345703125,-0.6875,-0.125,0.5
-1.0765215439278477,-3.233960046140098,-2.288593223022828,-0.25333767345965813,-2.1968562003216214,-2.4255541771668345,-3.2080977335110523,-2.8438224172763866,0.3045897317124862,-1.2492659771278036,0.01556479814467504,1.02197265625,0.10205078125,0.32421875,-2.75,1.0625,0.4375
-2.8114163900495375,-2.4656556389072457,-2.774892583954639,-3.417577945245563,-2.10461856295911,-0.711423329687271,1.222379625435938,-2.7576091752622953,0.29792774983615583,-1.2464654147554397,0.021704124281027824,1.12255859375,0.07080078125,0.53125,-0.3125,-2.125,0.1875
-1.771259843071632,-0.2591754159042376,2.4778133348683946,4.131135293997089,0.25052228175403285,0.5340566700958487,1.3786728080616013,-1.4585234466703312,0.2955315412475084,-1.2433561859070688,0.02394467645504215,1.1748046875,0.1455078125,0.90673828125,0.25,0.5625,0.8125
-2.5436434988208507,-0.9305431798362918,8.207534006721724,3.1465977166968573,-1.5655960389792656,-1.2888132114279205,-0.1904894590474335,-1.190813652634335,0.2949740369742539,-1.2518740008413909,0.026070468883283654,0.75390625,-0.0546875,-0.10009765625,4.4375,-0.1875,0.375
-1.4059694470816706,-2.7560660177025236,-1.0463756638458916,-2.4539325368479235,0.2334012240794586,0.2962024397762182,-1.5029213648928572,-1.586412532129675,0.2972882658747358,-1.2437083955734851,0.02286770934250294,1.1044921875,0.2744140625,0.6796875,-3.625,0.1875,1.4375
-1.7187520054814551,-2.502568999811375,-4.611816972838344,-0.22547972114348785,-0.5484824662735952,-3.536660213271954,-0.5729552390421504,-0.879737906180779,0.2958996707452371,-1.25283264181141,0.025153612323599174,0.76220703125,-0.06591796875,-0.11474609375,3.0,-0.9375,0.4375
-1.7680002850485919,2.28978856706255,-2.247216518494877,-0.708582925071618,0.014364022631109677,0.45765391964629143,0.5409286769841708,0.212968599896527,0.29601327028781355,-1.2432576993280162,0.023494043451710345,1.12109375,0.26904296875,0.74853515625,-5.0625,-0.125,1.0
-0.6539271323883319,1.0622310776466852,3.398551817901283,3.0552400857396376,-1.159598799369144,-3.1448924554233835,-3.118224292201046,-1.4849702912459437,0.2963030506505948,-1.2458859757007728,0.02324604534802515,0.73583984375,-0.04248046875,-0.2041015625,0.875,-0.8125,0.4375
-1.0665708049114537,-5.07421932618392,-3.7965814331780594,-5.2658656880214725,-1.263224272097967,-0.42521919831277916,-4.311285404853968,-0.7569601500601906,0.29211628211738755,-1.234713020241554,0.02334860925288172,1.13818359375,0.2734375,0.84033203125,-12.3125,-0.5625,1.75
-1.7159193586579136,1.9630171065744135,-6.202740041734951,-5.402721117598509,-5.983537507856701,-3.1515876280946022,0.09595061590079643,-3.0658768985684857,0.29839620621722696,-1.2480495819520825,0.010456181516742913,0.71240234375,0.07763671875,-0.36474609375,-21.0625,-0.5625,0.0
0.7492724574088191,0.6130541794393468,-1.3142299631042569,0.9140554154045526,6.832568291016658,2.7121183463515415,-1.0796158449954107,1.4196847598437885,0.29698928740862474,-1.2437743538281134,-0.004276350394509567,1.09912109375,0.30419921875,0.44482421875,-47.6875,2.0,-3.4375
-2.2403140034399676,3.599636414893909,-7.558933062307327,-2.456200321360486,-11.964499903345661,-0.5507974727530089,-1.2790805093685984,-1.333369155109334,0.2898608157717688,-1.240706186181395,-0.024024465257112458,0.92333984375,0.23779296875,0.22265625,-77.6875,8.5625,-10.125
1.5336254811860912,-9.366646648029596,-0.30591161345820794,0.6507083139204889,14.557143818759444,3.099788793622781,-0.6576522029268818,-1.6974539185326551,0.2667044311639201,-1.2304974739319958,-0.03833771766969448,1.033203125,0.20361328125,0.30224609375,-105.625,24.9375,-19.5625
-0.4974165304374775,-10.043249389588105,-7.1180437665346865,-5.462499263703241,-12.383933760901874,-9.228406593584754,-4.941420971728276,-1.4981008958374864,0.2489318268590279,-1.2118462932367682,-0.06030328487448945,1.04736328125,0.23876953125,0.3837890625,-111.125,46.5625,-32.125
0.8844529928709635,6.541635632741398,2.415992907811232,-8.645928171537442,5.46324628309132,-3.015447606741266,-6.022221901308412,-0.9819836016208704,0.2299871888214131,-1.1839702676392672,-0.08210205943710852,1.04638671875,0.248046875,0.478515625,-113.125,71.0,-38.75
-5.805325256022084,-8.811726429880176,-3.9774996526203537,10.104968714650639,-10.817301392302271,-5.313993161748292,-9.188568922279869,-6.39895652442091,0.20818079070637366,-1.1461730983285905,-0.09864453746905216,1.05712890625,0.17578125,0.56787109375,-106.5,100.0,-40.5
1.2510887754866948,13.612693704576007,5.697644069762769,6.622124362990106,9.941161722753645,4.795298523360863,11.955778881303141,3.8552457684067907,0.19190427533962548,-1.0957027649359992,-0.11302721997865653,1.0673828125,0.12744140625,0.68994140625,-83.5625,135.625,-45.9375
-1.8473603419007572,6.1248121379416105,10.353275905876991,22.11403363959808,-5.22514901512973,1.9714828685921566,0.8868303504224884,1.1263962719772846,0.1774443041078393,-1.0300056073584107,-0.126207531629744,1.03271484375,0.130859375,0.84228515625,-74.625,178.625,-52.25
-8.32305733119121,-6.296282323082143,-19.25212256379639,-57.712202742093254,-20.50167043457305,-7.556415445438604,-1.039950571075288,-3.9414608029257185,0.16269434678608194,-0.950218318849966,-0.14012616640790554,0.98291015625,0.146484375,0.984375,-75.3125,217.1875,-59.8125
0.8322099352208084,-1.6627640490762248,7.106449398567415,24.991092068393552,13.460412053734808,5.185761120669526,0.6139524327284128,0.9707660597871745,0.14242245697065284,-0.8561743345960396,-0.1518207263716803,0.91748046875,0.07666015625,1.06494140625,-83.875,260.25,-62.125
1.7164341795604101,-6.438278374873671,2.922916359262221,-2.425198760423035,-0.36770960589132373,-1.613416277468856,-5.259809361814865,-1.6293819255594113,0.12383575777989332,-0.750027150653062,-0.1598898686020977,0.78857421875,-0.0048828125,1.1826171875,-68.0625,295.0625,-57.75
-0.29450205690065656,-7.532698136538172,5.484271603106716,6.506877062612381,1.330452436226319,0.8131446501204004,0.45731684213720364,-0.35415954428908375,0.10852961615714607,-0.6355756233106565,-0.16500975479158034,0.7138671875,-0.07568359375,1.1875,-50.5,322.625,-51.4375
0.8694479913303057,-11.131510924532318,-6.792494728073439,-12.805553867356236,-2.4987928756216795,1.842305101070316,2.7096808443417055,-0.013738355968577382,0.09936957968180857,-0.5131407357479739,-0.1636631710327938,0.69580078125,-0.072265625,1.1962890625,-21.375,349.6875,-34.9375
1.4021971179523505,-3.7830074791212804,-0.22597310926639008,-0.1342479882719881,0.8978374365752771,-1.7079645446904,-5.176533139359036,-0.4662657140537279,0.09285313168969704,-0.3830848424795879,-0.1581641902325764,0.63916015625,-0.09326171875,1.201171875,-8.5625,375.125,-23.5
-1.1932703441029302,-2.7248629287915365,1.7016562560654296,1.3840992387296154,-1.610651157725639,0.4393546623693894,-3.6471761473917335,-2.050021851938954,0.08845781796646753,-0.2461858424289212,-0.15031216549647086,0.5791015625,-0.11279296875,1.13134765625,-2.375,398.1875,-15.8125
-0.8984141536392252,17.822058174290206,-6.866863602963502,-1.4371446050830947,-1.122865042191906,-2.564213700787047,3.5200786010636764,-0.4562779492938089,0.09636017821827607,-0.10015248388047976,-0.14198881399092084,0.4140625,-0.1484375,1.0166015625,31.0,424.5625,-16.4375
-0.06680643470492408,5.334568095301344,9.03881399831128,6.193438251982293,0.23220179910636277,-0.2487728230813761,1.3384593155554911,1.5160127113913846,0.11998078074506227,0.04900486940275913,-0.13011970720265578,0.134765625,-0.10009765625,0.79541015625,71.8125,432.5,-12.9375
-6.617639202579844,1.3405235404508449,-6.19884150064294,-6.732302034817236,-8.040342666531693,-4.645223919906841,-1.2242471135329636,-5.127073443728437,0.14606546742716006,0.19443513566783552,-0.11358366201031965,-0.11181640625,0.0732421875,0.64453125,69.4375,420.25,-8.5
-1.9109758428005303,-11.38427222873004,-0.46010035300310426,-3.290799215429813,-0.6609272617185894,-1.1732854127419883,-2.9564025644188323,-2.0505877857250283,0.16267253287820405,0.330909284154886,-0.09253490300923227,-0.22705078125,0.115234375,0.56494140625,31.375,395.375,-2.6875
2.089636720943184,5.206440509667468,0.5010520499583659,1.250237604420848,-0.11772391192830957,-0.8301555286673905,2.9024012772119514,1.850148638873143,0.17354237929457075,0.454930093082625,-0.06376569760158395,-0.248046875,0.0654296875,0.5859375,0.125,364.0625,15.75
-0.4199138342959387,-5.495251712187641,0.41939221905029755,1.7110527880436304,3.798628026110082,-0.3748282563471902,-0.7266180602016072,-0.7200251935156755,0.19002408238749527,0.565639847799261,-0.028753451941068955,-0.26220703125,-0.00244140625,0.55322265625,-0.0625,329.4375,29.5
-1.6880015415148872,5.678579527253207,5.500084471034083,2.3518691932835747,-3.9460474475339775,-1.6092051279358006,-2.0404592292183383,-1.827606720139444,0.2174704159080192,0.6638666565864899,0.009804247756495672,-0.3369140625,0.0498046875,0.51123046875,15.4375,294.9375,31.875
-0.807388739774041,-3.8927820474041313,-7.335020046327274,-3.0807596504390715,-2.609511531843868,0.1564797580262908,1.4419560324722753,-1.055364240195036,0.2520983635973959,0.7494339933224408,0.05285646979333768,-0.43505859375,0.14208984375,0.47265625,18.6875,260.625,34.0
2.1592256719825578,4.982239091184081,-0.02375303465974946,-0.9332547963251149,0.016899207850705613,0.33291170130970493,0.3393875607684535,2.091585758235904,0.292206122032359,0.8201418633477322,0.10024876016455328,-0.515625,0.17919921875,0.4794921875,18.5,221.125,37.4375
-2.0884931960725543,-3.7425155653739712,-2.5658314162968967,-2.51268745366934,-1.5361149784987957,-1.3532340842857438,-0.5513817758109629,-1.4606641186390061,0.3348158213414023,0.8790234466300464,0.14961090427298754,-0.478515625,0.18212890625,0.47216796875,15.75,190.9375,36.3125
-2.366903403656263,-2.5064401462360166,-2.2673131481021382,-5.069083087818081,-0.6319859837475532,-0.8543159202135735,-3.1312777014259305,-2.6193945067151083,0.3797065990646868,0.9302317263551972,0.2000568266650925,-0.58056640625,0.2607421875,0.40966796875,14.0,168.5,30.875
-2.1806793981840507,4.875864247485082,1.822104466532621,6.004284230491716,3.577700873646762,1.6077486001553072,0.08543697409935114,-1.311512081115229,0.4227143166047074,0.9699028803319346,0.2471956644644775,-0.6435546875,0.283203125,0.365234375,12.125,134.8125,26.3125
-0.12279778132574491,-3.566646889341487,-3.0218140190118707,-1.6083672587098234,-0.5584581931683608,-1.6861908457575001,-1.6281683262025717,-0.6095004368999669,0.3006837337313381,-1.2088146040207597,-0.05852967020171719,0.921875,0.10888671875,0.3291015625,-0.5625,0.5,-0.3125
-1.655071345650483,-3.0251248598204628,0.9660938388004158,0.5532307308198627,0.4331948137009912,0.30722910031069056,-0.5567580160235773,-0.7578752021355615,0.3001977545714233,-1.2087203810909044,-0.05892719410434655,0.95947265625,0.1083984375,0.33154296875,-2.3125,0.9375,-0.375
-0.8370950985733103,-2.955138603076261,-2.979742297405886,-3.924158348622885,-3.788082413099581,-0.981241751725799,-1.8908018781005564,-0.498701543229617,0.3171473362705597,-1.214686769556451,-0.07434265788042473,0.6484375,0.21142578125,-0.12158203125,1.25,1.75,-0.75
0.7310898377385092,-1.7955168990707338,-1.7465706893382054,-2.443676324036949,-0.03944287548554687,-2.2207469717725656,-2.475504013741882,-1.191863772582216,0.3347262791526569,-1.2269980828091,-0.09148601088971876,0.6708984375,0.1591796875,-0.36572265625,-2.0625,0.125,0.625
-2.7039009104448426,-3.1632572687568357,-8.629912549047196,-3.007642981725845,-4.757687715612715,-1.3787211454411477,-1.7151131971238898,-1.9055723156475344,0.3296705174350427,-1.218366125552035,-0.08840942273822147,1.1162109375,0.2255859375,0.744140625,-5.8125,0.9375,1.0625
-1.6827310496383905,-2.5050916891985158,9.539913669698732,-2.4941907283710547,2.0597748643699494,-1.6038555686780624,-0.4080534413852638,-0.9962706738169693,0.3284958846767972,-1.219816798735772,-0.08726197052176245,0.74609375,-0.04296875,0.03857421875,0.375,0.0625,-0.0625
-3.153221380605115,-6.9270698273167355,-0.3407985547699218,-5.68583383063954,-12.293246622923583,-2.865215822703015,-3.428237527332048,-3.2401483332108576,0.3292797132338504,-1.2139982989627476,-0.09013534420153324,1.08447265625,0.25830078125,0.6015625,-6.625,0.25,0.5
2.1389859433593554,10.457145939906006,-0.8077619276472934,-9.979778733891917,2.7920700915217935,-5.502873763943856,-1.4531567333190463,-0.17954839036577663,0.32800944652093345,-1.2151552817241469,-0.08893029027103068,0.75,-0.04931640625,0.0703125,0.25,-0.3125,-0.25
3.8469630673707247,6.620828462298134,7.407610797606811,26.193230561990465,0.5051982532253879,17.339756175474488,9.60291889200508,4.438505006937643,0.3279767156969696,-1.2090846334561896,-0.0911098985921952,1.091796875,0.25439453125,0.62890625,-6.8125,0.3125,0.125
-6.760014429816192,-1.993016288795065,-9.251809757897112,-13.397840127713039,-11.884228253062687,5.47993155795085,-4.918404236020902,-5.907113978387012,0.327741073127302,-1.2106902892141278,-0.09084509931131604,0.72802734375,-0.02587890625,-0.02001953125,-0.5,-0.25,-0.0625
-1.9179270783296871,15.674210099627343,9.461464866733511,0.8716642923014277,-14.258328273731452,-18.363401691299863,-1.1988491633294545,-0.8530523116914124,0.3243369685585729,-1.20217172649495,-0.09176345477979224,1.1298828125,0.2705078125,0.74951171875,-12.625,0.5625,0.25
0.1962994639062902,-24.392571597070674,-21.080145913498086,-11.903550179508814,4.382486071420033,-4.5839575889286355,-7.127492523015403,-0.8259059734885087,0.3287644759430237,-1.2093964066492044,-0.1016671959098063,0.783203125,0.1259765625,-0.119140625,-17.625,3.0,-1.1875
2.4266163115079498,-19.469707211567005,0.491872948768054,-11.408035837708047,-1.1061205089783521,-1.3773644778921181,-5.681246155235097,-1.3481647480283752,0.3227748001715693,-1.2024988088232291,-0.11342947254570075,0.96142578125,0.2802734375,0.29443359375,-53.1875,18.9375,-7.125
-1.3782258153331055,-9.53415733091806,4.887977454109703,-16.63543434642073,1.5358311179222042,-0.5275897456887298,-2.4695895174034503,-1.5674721486360772,0.3028992734536819,-1.1914094536260191,-0.1233713201845454,1.095703125,0.251953125,0.2724609375,-87.4375,36.8125,-11.6875
-2.5925300925239476,5.464768018153474,-9.265238986699034,6.406710166809623,1.9630495256867682,-1.503280063115162,3.4685956917414766,-0.6985500837715541,0.27082514902701194,-1.1628006127237431,-0.13208498022843546,1.16943359375,0.2421875,0.3408203125,-115.8125,77.625,-31.0
-7.620734251605005,15.13281353327811,-11.872394924357405,-8.83329940632974,-12.096762303896465,-1.1379584104306213,2.2694815612644104,-3.9500281861291424,0.24008978606561704,-1.1202152235290497,-0.1479598717993523,1.16796875,0.1220703125,0.603515625,-129.5,113.0,-49.5
-0.4485515818363227,19.137506016440895,5.535938195549917,11.587705055041447,-0.7152808467644097,0.2949626265458718,6.34079523912471,1.586362119621656,0.2075517867562502,-1.0628540641563873,-0.15341458658034754,1.2744140625,-0.10302734375,0.9814453125,-104.6875,154.0,-47.0625
0.03129785018144277,-10.286316798772972,-21.43641583373093,1.1454067022998264,-5.700203638040258,-7.50331162649913,-7.0573153415910514,-0.8460757549058541,0.18627510422722693,-0.9815854242284994,-0.14433117798333242,1.14404296875,-0.1083984375,1.1689453125,-35.5625,225.1875,-36.0625
1.4508615666606852,4.60427409950315,10.469471361317305,6.178155923111381,1.4674911390298564,1.4555097510439134,-2.4729765795750716,0.016013560066076356,0.1855236082088541,-0.8801170820355448,-0.12992740521367888,1.04638671875,-0.0322265625,1.25244140625,33.6875,285.0,-32.3125
-3.296514505148669,-14.12071091687926,-7.6082367565029845,-2.343191560548478,3.554632256687001,1.4249625615708181,-0.9122457876484458,-1.8441813510254317,0.1946579536312551,-0.7616036745905845,-0.11576527004267992,0.77783203125,0.1064453125,1.26611328125,57.4375,333.4375,-37.875
4.482852098437427,-19.332278482584194,2.5112154728171623,-1.252773500527977,5.084764284758372,-1.8268966778281437,-7.877703166282991,-0.7083815347139102,0.2046290151652544,-0.6300180646342322,-0.1030113180138478,0.58154296875,0.19775390625,1.20166015625,52.6875,371.125,-47.0
-4.707348685258649,-11.61439562858738,2.907460549639189,7.214536082173983,4.833116872650393,0.8362513076582586,0.973739350182243,-2.4763932706186327,0.20610332463957684,-0.4885449013525087,-0.08973044788459948,0.423828125,0.2353515625,1.1708984375,24.4375,400.6875,-50.8125
-1.5936335822502363,-1.7557256443926248,-10.211295859975905,-5.841768851444553,-11.753032225636263,-3.377703213264874,6.792026343834942,0.9819570511397935,0.2039578761660666,-0.3390709835755457,-0.0777306045578763,0.37939453125,0.17333984375,1.048828125,8.6875,426.4375,-56.9375
-0.9924807998421613,7.864292218456432,-3.667952795276573,-4.070295244296371,3.1219362466484615,0.6975357703788145,0.8966776165826031,-1.614740050566881,0.2077842528520296,-0.1844334095503282,-0.06402798363516563,0.16845703125,0.13037109375,1.01416015625,22.4375,442.1875,-53.625
-3.3001829706965817,16.475875550678452,8.775994650351919,7.562052882270295,-0.3715821775169731,-3.0058753432272827,-6.837349099072195,-5.36372322222377,0.2148964521804262,-0.029661116872572574,-0.044951407077583716,0.10205078125,0.07421875,0.9267578125,28.1875,446.875,-40.5625
-3.6626346384673494,-7.329031359477342,3.9470817694572125,-1.4588102721147098,0.6669641990611501,0.7208425790995898,-1.9332723785225452,-2.4307854217641167,0.22959333059741285,0.12435520276185998,-0.023810066757316492,-0.0615234375,0.07958984375,0.82568359375,41.0625,445.3125,-38.5
0.01879927922980198,-5.112022424340395,-7.621904037358268,-3.961304532053622,-1.5092804117082887,0.9460360574543758,-0.7812147795109624,-0.4528790918768668,0.24550802141902506,0.2709309263739039,-0.00012792940008895783,-0.130859375,0.09619140625,0.7177734375,33.8125,425.75,-33.9375
0.5254301634065938,-2.699508886179501,-4.964301017943206,-2.8990026786215517,-1.3023438437818233,-2.424518792624068,-2.5024494809976425,0.47816390982562795,0.2653797745156059,0.4097630031559495,0.025536353589089747,-0.275390625,0.18603515625,0.6259765625,31.9375,403.0625,-33.9375
0.8109138320314974,-6.979589658893509,2.828260149087927,4.11367521876041,-1.4401800949423902,-0.8199814985918039,-0.15597565099395594,-0.13845707948866393,0.29058638632133904,0.534011205130817,0.05713553182088722,-0.333984375,0.18408203125,0.60400390625,30.875,365.75,-20.125
-1.2697347478162848,-3.063539909823256,-7.696590462578992,-5.633722866690149,-4.870793540980642,0.726635154487771,0.9907763093429638,-0.658259236278657,0.3214308099046587,0.6422400346820116,0.09643917235776008,-0.275390625,0.185546875,0.5458984375,25.5625,326.0,-5.0625
0.713824155043383,-4.115013029088401,7.552777521506294,0.26760247725008107,-3.954506169873655,-2.7573461488303654,-0.850610992365796,-0.519852762199586,0.3526250596509462,0.7378763720078695,0.14035988819513165,-0.2919921875,0.1611328125,0.5576171875,9.8125,293.875,0.6875
2.086739119604528,5.560923065954504,1.6794979044336347,2.606996138025459,3.986934384791937,-1.1369850212724704,-0.7516994068454523,-0.3510889420216057,0.3890148491025231,0.820214982924609,0.18643374624494805,-0.34912109375,0.16943359375,0.52197265625,11.625,256.9375,1.3125
-0.32845590048506274,-4.923502564953749,-4.4643501972311235,1.0527301523062906,6.514800874017322,0.4552533018080487,2.2230904093572788,-0.859833264235472,0.4349654993597747,0.8856523615470476,0.23266412425224398,-0.400390625,0.1513671875,0.49951171875,32.8125,209.4375,4.4375
-2.1612414447722186,4.752538059736782,-0.6140870935098608,-0.44732853638701126,-6.324538919149313,-2.4944617084194505,-3.12400383923814,-1.7862238202010932,0.4854246781918336,0.9340176639951364,0.2801241590800187,-0.38037109375,0.1650390625,0.443359375,37.6875,163.5,12.9375
-3.5499117379339356,-6.283820379556464,-6.729719390261931,-6.543686773829679,-3.3519963723186796,-1.935406020811226,0.2322919535472172,-0.9703947244626181,0.5303372418236929,0.9669988219247364,0.3276146959055088,-0.51025390625,0.23193359375,0.4140625,18.1875,123.3125,22.375
1.0557381453022636,14.228940085625691,6.0883649324271625,3.09771110133393,0.3608326948744429,-0.8755037140399169,-2.302020312755458,-1.4581771561701493,0.5629320115203104,0.9866105637214124,0.3652466464575368,-0.5419921875,0.18017578125,0.39794921875,6.1875,84.8125,22.875
-0.6556267218965423,-8.339293342163533,-2.3616152377105,-2.655520720136085,2.4868378122684067,0.5336394371808317,-2.9726926237023195,0.4605344241122508,0.5907680129111196,0.9980062730101088,0.3961217895435298,-0.59423828125,0.1943359375,0.37158203125,7.25,56.5,23.625
-2.435612885318085,-0.18088736704932384,-2.18779917306413,-1.1584640442290772,-4.099715323033246,-2.484538213639643,-1.068401616370983,-1.52001468358857,0.6082729893834138,1.005980844787644,0.4203522725682061,-0.69287109375,0.2080078125,0.33935546875,-7.25,39.0,20.4375
-1.727525862208085,1.4043014338375077,0.8981969747798125,-1.1490817889905975,1.0053956658285454,-0.1322596162273845,0.45268054960446713,-1.6299498608121434,0.6177612043198769,1.0128312987374974,0.4383435233160367,-0.7880859375,0.23876953125,0.3369140625,-16.375,28.25,13.75
-1.2351437963050733,-1.6759085083199645,-3.3263541375563164,-2.3817051914781615,-3.475512433250137,-2.2649764510682804,-1.7477300591487188,-0.07309736700201219,0.6230943210667446,1.02036571907472,0.45187323920767,-0.8662109375,0.2431640625,0.333984375,-17.9375,23.5,8.3125
-2.183583972300431,0.1522631049472986,-3.0594966306038547,-1.9307989345860384,-0.5266948402794657,-1.3056597803437011,-0.9469217745106034,-0.6832771924749854,-0.4031498174984257,-1.2574708188525947,-0.005138236205794903,0.9404296875,-0.10791015625,0.28759765625,0.8125,1.1875,1.6875
-0.46093485474627943,-12.248183562783177,-5.9217228264679855,-2.0931648675139995,-0.9878837959515337,-1.0583599600581801,0.18999649392783685,0.17117925709438342,-0.40235290233286425,-1.255781446762573,-0.005885125481544264,0.9345703125,-0.1103515625,0.32763671875,-0.3125,1.5,1.75
-0.01001578258551877,-9.421524324103945,-5.181873962462575,-0.9641253121065114,-1.4213968603507983,0.7173541333861718,-0.09384429292893721,0.06458637105341254,-0.3971118853377891,-1.2478426466906196,-0.010919927531933802,1.17626953125,-0.19873046875,0.68994140625,-0.8125,0.375,1.5625
1.3834201168565734,-9.146330018900876,-1.1905750100212154,-0.3093963044817619,0.07873600913058287,0.2920918113462139,-0.06810587989521687,0.6567492177195401,-0.3943254344399377,-1.2447219597798118,-0.01360879684222513,1.142578125,-0.12158203125,0.4619140625,-0.5625,2.6875,2.9375
1.1001195166908289,-3.6248613915651675,-1.5262478114959963,2.3052877152774904,0.8429917998328192,-0.039739756033562654,1.5636328902261778,0.9805098894030417,-0.39401761700401255,-1.2315673822347666,-0.012713900424296092,0.88427734375,-0.3095703125,0.7568359375,2.5,2.1875,2.25
-0.15592731572221297,-5.870858166520831,-0.4993620834892223,0.9473700244587492,-2.3239736998275236,0.3793080681880643,-0.9228639104773632,-0.4984179557689914,-0.3970525280582963,-1.2444732695818326,-0.009885677059410632,0.9775390625,0.0810546875,-0.2568359375,-0.375,2.25,2.0625
-0.6435579194022791,0.6590376318688751,-1.9152217563662002,-1.838837643010991,0.5821593038006351,-1.2294828961233226,-0.605104495863473,-0.17290847186016536,-0.3976322899487046,-1.2326745258525729,-0.00895030018127829,0.876953125,-0.302734375,0.72265625,1.1875,1.75,1.9375
-2.3554143499138793,-0.5858998530562798,-3.35983741598803,-0.8174746217468268,-2.4250319468818033,0.15734711479145003,-1.1692530646348496,-1.5695858231055142,-0.39841669384733625,-1.241332796987078,-0.009093522633586494,1.052734375,0.04443359375,-0.037109375,-3.625,1.9375,2.3125
-1.2728355059871108,-6.86603338162288,-0.9086290853919087,2.7649993131993704,1.187075160942274,0.9671774009215199,-2.2302450954356803,-1.2075721785307452,-0.4054205704158164,-1.235410242388836,-0.0023474503073711308,0.7939453125,-0.25146484375,0.42626953125,-0.5,1.25,2.875
0.15144864451587456,-5.337696608912317,-4.081348083196251,-1.923258340515355,-4.133028423691293,1.3164968909205232,1.256760289354827,0.3931540071790095,-0.4034943446566443,-1.2348709496979178,-0.006900494556220136,1.15087890625,-0.0322265625,0.3720703125,-9.375,3.375,5.0
0.3369655356849467,-4.294785102743921,-4.891979902823595,-7.887783838025308,-1.5247014358038915,6.437803743157351,-0.866860780841853,-0.7051083294104958,-0.4234828735882974,-1.2373261800670865,0.009101723277239843,0.74658203125,-0.1259765625,-0.02197265625,-11.25,3.875,9.6875
-1.9118224770704224,1.4635696646368623,4.217250715032878,3.338456495526032,-1.3280975452572692,-0.6452592685001779,-2.6837722641596935,-3.036285058221658,-0.43456056376812174,-1.2267954883458854,0.010456161163286813,1.2177734375,-0.10888671875,0.67138671875,-32.3125,8.875,18.625
-0.7683532198908308,4.6574865663555585,0.7323594713992693,7.174988970141821,5.615858708846726,-1.09384219235955,6.59555866278772,2.7730030837318393,-0.4599319668988371,-1.2162655261159927,0.01841082231510764,1.0,-0.14013671875,0.45947265625,-52.9375,15.5625,21.9375
1.0555002577414343,-5.746777495845984,0.8107499321841095,6.503873912930552,1.3025529141873822,-8.548160545716545,-6.421821891262679,-1.2925617958517766,-0.4852767057099637,-1.196543637176844,0.02183035896960046,0.9404296875,-0.2021484375,0.544921875,-65.6875,33.75,26.9375
-6.729981394879684,-22.684694121085982,-13.236344016819869,-6.72378028215889,-4.188875787329453,-7.039920130734359,-5.323350308603135,-4.641188410326959,-0.5174796360777622,-1.1675813941790405,0.02802510332730222,0.916015625,-0.29833984375,0.6103515625,-76.5,52.5,39.4375
1.9417799480027813,-4.4052214041190885,-0.7513059029382397,-13.486004188146559,-6.243522366850435,2.6544309925087215,5.934691054829161,3.477443027475054,-0.5571487017239949,-1.1277576274795231,0.03736513141438725,0.98193359375,-0.4306640625,0.67919921875,-89.3125,73.5625,56.1875
-1.866940923742105,-7.344499917242965,1.2514164599385431,0.5816850803282201,0.7681711982699498,-4.639041863891693,-6.188532100104988,-3.5695155925817237,-0.6041585200137508,-1.0758231643072311,0.05062634111539471,1.00537109375,-0.5810546875,0.7451171875,-99.25,95.8125,78.9375
-6.412227179035435,20.13817411501395,5.917284919552117,6.2910930406800665,-3.1223765928941667,-1.127964261922053,0.3303648706756523,-0.035037214166804546,-0.6494363319554066,-1.0185018517172746,0.06333256692643345,1.02490234375,-0.6865234375,0.775390625,-97.25,118.5,106.75
1.1163684128257285,6.381186427563614,0.4574644662977345,0.28977409935116344,4.175235315470837,10.038187432883165,0.2205775302000015,-1.1328403828979623,-0.6931419622621763,-0.9493200556460584,0.07818095146539361,1.03759765625,-0.76806640625,0.7490234375,-88.75,138.125,137.8125
0.506538432724059,-6.814293354220793,-6.247370499114699,4.51750437761757,2.5821731461287167,-2.1885704221035462,-1.7360870635862056,0.40656862657300263,-0.73416821829963,-0.8699181367827536,0.09549076876807792,1.0478515625,-0.8583984375,0.73681640625,-76.75,151.0625,168.1875
-2.0283776691037025,-4.527073420555447,-6.848706867271002,-21.90116412784922,-3.695242227983944,8.202555662643821,-1.3551415036383057,-3.8189664542281596,-0.7631058707408878,-0.7826123442419819,0.11204239480561948,1.044921875,-0.9072265625,0.72607421875,-46.1875,161.8125,191.75
1.1293790354469933,-7.251272912025467,-6.212528913942108,-5.987957466004129,0.9629426066340836,1.696182268935938,-0.9664161038718102,-1.666359540221759,-0.7792342091260963,-0.6891865988196959,0.12906240976285427,1.02001953125,-0.90087890625,0.68359375,-11.4375,169.3125,212.0625
4.236157228685234,13.997746988619362,6.183011872332532,0.6774672043928296,4.450709085354967,10.341413391228286,5.291546759614206,2.8360968842118326,-0.7851989402644209,-0.5901134258131855,0.14787947263400186,0.95263671875,-0.86376953125,0.669921875,16.9375,174.0,232.125
-0.999850336197114,2.054084551408849,1.5882211189997508,0.8613416720292025,-1.9793868702559498,-3.6118602215360545,-0.20047886442903634,-0.5024143212399967,-0.7857433287084657,-0.4867859171097311,0.1685147796596721,0.92431640625,-0.85791015625,0.66064453125,30.875,178.4375,248.625
0.7075528258922436,-5.216870652179027,1.9270191739886502,17.46415853159281,-3.2741954789144754,-9.30219729749995,-6.122911357703238,-2.55666917743434,-0.7826284994820673,-0.3800173401612304,0.1908122978416606,0.88623046875,-0.80322265625,0.642578125,37.375,181.8125,262.3125
-2.7222017388587028,-16.238176666471936,-7.5982376730508845,9.969360116370623,6.9729286216918,4.779740546045433,2.6344561626348644,1.1010874068843057,-0.7790859286345577,-0.2701850424690657,0.2156408248902072,0.83349609375,-0.8212890625,0.62890625,34.875,183.1875,275.5
-0.46220226146061005,-12.93562205644208,-6.945297698549771,-8.814674339600588,-10.874283889042246,-7.11699035694023,-4.25727067776397,-1.4119709210656783,-0.7731391665556536,-0.15698686036542447,0.2444885532658481,0.6953125,-0.83203125,0.615234375,37.5,181.6875,291.25
-1.574732548379341,-3.3639129506407563,-4.389164584097051,-17.334630911278758,-7.806870086892844,-3.2016586260378155,4.737758381910473,1.0549052229261995,-0.7619519480394996,-0.04394062345220316,0.2757075180499943,0.51953125,-0.81396484375,0.60888671875,43.5,177.75,294.8125
-0.09762915014389689,-4.6626755340402175,-10.317481342427147,-9.522430360370723,-7.345794183857599,-0.894176549040219,-7.373934312904761,-3.18307084079729,-0.7422018506124418,0.06788300626451996,0.3097262809441365,0.40087890625,-0.732421875,0.6044921875,57.8125,173.4375,295.8125
-2.4669731653408458,2.9461886309640746,11.310931453421622,2.3834931746262913,-1.8234088720635937,-7.637334849307367,-1.4547398949660304,-0.5933551981864078,-0.7179991874010079,0.17686771910620874,0.3478489997580642,0.23583984375,-0.57470703125,0.5615234375,56.5625,165.125,294.0
2.0522827658874907,26.737026647298592,-11.344045442461178,1.646305106044906,-5.750532947107995,-15.733401504895404,-2.3911309333316706,-0.9256855903652158,-0.6979863502001863,0.2824206455159321,0.3923841906190919,0.0322265625,-0.478515625,0.4970703125,29.0625,151.6875,293.875
-8.519411088155938,-116.44823152920019,2.4872338327359724,-2.8269916055149813,-8.42203463474108,-7.145550864496284,-4.582337996460254,-3.358836686530241,-0.6772425866678501,0.3813048419760106,0.441921677385019,-0.11279296875,-0.46630859375,0.484375,14.25,135.75,285.375
40.251939123084696,71.70675370170191,-5.0447861434207795,-5.872694354734293,3.8277327131200884,4.450562131492005,2.5598998025145603,3.3075109465763415,-0.6424356767970824,0.4722050251189008,0.4948274403427932,-0.140625,-0.37158203125,0.4765625,36.625,123.125,270.75
17.59862851303701,5.864521810029491,-3.2421635943663794,3.4805561874452926,-9.579617269764636,-2.0826174877330814,4.9900171067497325,-1.0273871920263962,-0.5972973602791233,0.5550179139359684,0.5513246608479359,-0.22998046875,-0.2333984375,0.46533203125,48.5625,112.4375,252.875
-60.7298518208641,-18.884831933551478,16.07816706620617,11.346155045177877,13.534480259739077,3.5912526580120816,-9.254644099450202,-5.683442971703341,-0.5548378831577913,0.6279694722781033,0.6109145823275285,-0.30859375,-0.15673828125,0.42822265625,25.125,98.75,232.25
-8.630173924942168,38.93495707097531,-0.6590471527588391,18.164961476252387,9.582288506174832,0.9002503229458412,1.9318323924557026,-1.0672947940811803,-0.5149355529189011,0.690836918699719,0.6735839337472868,-0.3466796875,-0.181640625,0.4501953125,3.5625,83.5,213.6875
-7.655929178726164,0.5539500427218885,-1.6023136811181442,8.005493476210326,2.0983396271205748,-1.2356951618644374,-5.32518713537887,-3.361912778336995,-0.4683345008554702,0.74371888236452,0.7359174691819074,-0.373046875,-0.1806640625,0.47119140625,15.0625,71.25,189.875
5.5686756408611915,4.545345815740501,1.2270789101063713,2.942116474373947,1.520413612690198,4.635743623508698,5.03439773887774,0.2443015445411895,-0.4175260919107819,0.7881163855293786,0.7947523582384809,-0.45947265625,-0.091796875,0.46728515625,27.4375,63.25,163.3125
2.837511835389812,0.5682785575417154,19.401073496873856,-2.2147539027356062,7.947036931665358,-1.1553705534171286,-0.9561504022242491,1.5517406356765826,-0.3750255451422468,0.8244192239380743,0.8501540302882369,-0.48486328125,-0.0625,0.44775390625,6.1875,54.0625,140.125
-1.3394677605478928,10.38210744291578,1.5426747772516018,-1.1577382033957235,-1.653330641696704,-1.4862579642342097,-1.3591954843731653,-1.2657633596077422,-0.4075988943469921,-1.1973703794699495,-0.3089816839481323,0.9296875,-0.13232421875,0.3310546875,-3.75,-1.0625,2.3125
-0.6292889302363197,9.294882303979449,3.5586516505746655,-1.2791136240232146,-1.368959662937405,-2.1361897693679976,-2.0611346545506923,-2.5233234784500462,-0.4097437715407175,-1.19746930212544,-0.3078328689236351,0.927734375,-0.1298828125,0.3369140625,-3.4375,-0.9375,2.125
-2.344396692232912,7.265080443555565,-0.7855258833582741,-0.7713075813965614,-1.7413908856552633,-1.297436250166634,-1.1724698449720437,-1.332020691653996,-0.4097952016214615,-1.1954688630734416,-0.3093197161599566,1.03955078125,-0.13330078125,0.4482421875,-5.9375,0.5625,2.4375
-1.8608402265487831,5.179363769277716,0.6935986634935761,-0.8382782185775267,-0.758456814002785,0.9121580567383053,0.7689024494709296,-0.3555071031064586,-0.4001303521904865,-1.180697498466581,-0.3199539901277079,1.14453125,-0.25634765625,1.107421875,-5.4375,-0.4375,1.9375
-0.7042228228561463,-2.8291037659358955,-1.073411157476783,0.4684146807266692,0.14008594156691287,-3.289642634104159,-0.87157204234065,-1.5694616237299681,-0.39779380576824336,-1.1643831966791836,-0.3229487471206293,0.96728515625,-0.37353515625,1.06005859375,-2.5625,0.375,1.25
-0.746131367456976,-4.061531329660313,-6.102341526601293,-4.105047205004136,-0.409200922626025,-0.13856731854737506,-1.3170959747398343,-0.3197001087291283,-0.4073089318189787,-1.1802226773809572,-0.3142904250845057,0.759765625,0.044921875,-0.42822265625,-1.8125,-0.125,1.375
-0.24136175573735483,0.2285459134343036,1.1287827855813461,2.339303831825651,-1.5366712221216432,1.9839822741008426,-0.1025693615187401,-0.5285123198163066,-0.3997439752498427,-1.1645405798567543,-0.3227196783591292,1.09423828125,-0.31396484375,1.10400390625,-4.25,1.6875,0.8125
-0.9212284418443657,-2.593850585659859,-6.299351438883439,-1.4911588845039738,1.068199523363728,1.8135309812533424,-0.8679065613013686,-0.5281199251303844,-0.40870610346194064,-1.180704943632239,-0.3151613025668552,0.77587890625,0.04296875,-0.421875,-2.3125,0.125,0.5625
0.9590665409251757,4.823648770525374,7.605931773508578,7.174151652963285,0.2312492320613291,-2.2066692175570264,1.1279937760139636,0.16924052839503728,-0.40340510308957184,-1.1635110451189716,-0.3209973857991588,1.04833984375,-0.359375,1.1064453125,-3.5,2.3125,1.375
-1.723465009438968,-5.531652122940988,-4.353024668994215,-1.8383837406026176,0.28640919191501196,3.1582633174015546,0.6753518965329726,-0.7178740363464069,-0.41213728355514745,-1.1781492547822017,-0.3129733903313691,0.87109375,0.046875,-0.36962890625,-0.9375,3.0625,4.125
-1.830379847193413,-2.064552358374096,-1.9149497290511754,-3.1784605609024776,-6.244103430698386,-4.116064927148864,-8.052963674840518,-3.2383835460731163,-0.4135663177907213,-1.1603703868366697,-0.3118816438913133,0.9599609375,-0.380859375,0.99755859375,-2.3125,6.5,7.75
0.37649812565196233,-10.677932028458,-1.9728116499142465,3.484639405614862,-6.753751580245,0.5716131871920771,6.025262999510901,1.0233881409367591,-0.4267989613836076,-1.166838326592681,-0.3028125806872949,1.041015625,-0.00048828125,-0.08349609375,-13.25,10.1875,13.375
-2.557708257136889,11.884560404482196,-3.3773169763912314,0.20639429545061488,9.678014383867627,-4.976206934865414,-3.4830447878487507,-2.3225968909588475,-0.4413697791414101,-1.145620345041925,-0.29645750107918245,1.2353515625,-0.36767578125,1.048828125,-28.125,17.0625,24.3125
-0.7029397669968394,-2.7237552837876953,-9.764739781239117,2.7486090353048915,9.351704286337608,1.2316039845152797,-0.0029334349291454086,-1.3563826613055572,-0.4691661750435558,-1.1323364444342452,-0.2819752132142185,0.88818359375,-0.2109375,0.400390625,-42.1875,24.3125,30.875
1.468942495115004,-2.314998841436624,-1.2860435812886903,-0.07108293031796102,-6.420587300425478,-7.055913015993194,-0.9375951596920875,0.8358522876429175,-0.5082028408409771,-1.112431137807635,-0.2598302272163779,0.92333984375,-0.30517578125,0.45068359375,-53.375,33.75,45.4375
0.6493003249196627,-10.606415951160438,1.3016957503809299,-14.26558720184378,-6.551929407322573,-4.0441172700468195,-0.426879530813303,0.09957970929114204,-0.5547724996648339,-1.085520647853359,-0.22966269689354415,0.927734375,-0.41650390625,0.4873046875,-53.25,42.25,63.0625
0.14222916418546666,0.3838660198860474,1.1196040723744602,7.49547400513221,11.119846125572472,9.580596162125607,1.281328659507823,0.0153661245224024,-0.6045979381906003,-1.049733787537175,-0.1939443054741692,0.9736328125,-0.51513671875,0.5439453125,-48.9375,53.5625,85.4375
-3.2650864309857877,-3.7859283333916665,2.5510178301184863,-7.371111395949199,-4.42163732832087,7.148258332839845,1.1083449749299932,-1.9771628856142336,-0.6488699846528271,-1.007103630598279,-0.15922271288186016,1.01123046875,-0.62353515625,0.5595703125,-40.1875,68.0625,109.6875
1.0444895625879818,3.522122941701771,-1.9863134111674783,-6.688636513992011,-2.084309156816121,-4.819900724406547,-0.08461467115492863,0.30102318369743375,-0.6992044331456378,-0.9524312099605612,-0.11686767181999935,1.0322265625,-0.8505859375,0.6015625,-40.9375,79.625,145.0
2.4454263657109623,-8.898891988063623,-2.9552495034616215,-12.81132708689867,-13.817954620931438,-4.306151061487859,-2.5161567104572424,0.6645404857644498,-0.74847308555935,-0.8825868448944729,-0.06677824252595445,1.04345703125,-1.03955078125,0.66259765625,-23.75,91.8125,191.8125
0.2284943025443639,4.550009839429232,-2.9320163332855906,5.302152628744499,12.499872574491,1.1191633236393375,2.307465019707047,0.8108587604989639,-0.7847246330367478,-0.7977717574114609,-0.018516763178519517,1.0849609375,-1.0751953125,0.728515625,2.125,111.4375,231.1875
-2.82260937159438,-7.5164246915145565,0.6455342889524819,-2.7967539366553433,-6.459354100182988,-10.133728678485664,-4.547762435843768,-3.1804810455219323,-0.813898836328942,-0.6996522238773221,0.025128761659779085,1.02197265625,-1.0556640625,0.77490234375,3.625,130.8125,263.375
-4.760317627783442,-8.27975658545235,-4.477808494122498,-2.407002390140127,-5.864787110806508,-4.5994871293735855,-5.09393806848653,-3.925203361798454,-0.8378430656114411,-0.5898760580549598,0.066390460991627,0.8525390625,-1.08642578125,0.79833984375,4.1875,144.625,294.125
-2.4191913474866884,5.065768823678471,-4.611281225019164,-3.517136152622982,-7.2710231835707875,-1.9089768052956761,-1.3768556988530007,-1.935490652662686,-0.8518874084464743,-0.4722281742664745,0.10475229703251876,0.7060546875,-1.02197265625,0.7958984375,16.625,153.9375,315.5
-0.16458873678683258,12.87253083993511,6.881185368034272,3.9201167507714016,-0.7748056559175901,-5.013235219491556,-0.33225468716615436,-1.1083220032528922,-0.8541922270201114,-0.3491525242777217,0.1426864236331412,0.56884765625,-0.95068359375,0.76904296875,37.4375,158.375,332.8125
-1.9973851684289892,-2.664079395016077,-1.6334637441673916,-12.611067596567402,-7.227920312495128,0.3518889053096864,-4.498277436303815,-0.8531859873891564,-0.8460513644529023,-0.2254106977711833,0.17934662375378774,0.49169921875,-0.849609375,0.7509765625,53.3125,161.0625,336.3125
-4.084197551330771,-8.477178188990413,-4.370986330332046,-0.033126767037561136,-4.025886802925642,-16.705678486917996,-5.456142365627454,-3.0412177190082597,-0.8295042026237971,-0.10283528227272158,0.21602279404451508,0.470703125,-0.7724609375,0.73974609375,64.0,162.125,335.4375
1.306735755376282,8.297545563377444,8.114180455125894,9.527176516378177,9.105009103498567,11.024504100435232,0.4303955540680158,0.7298660191070531,-0.8080859183149544,0.017723296085304166,0.25417973812080497,0.43994140625,-0.68896484375,0.6943359375,65.25,161.75,333.0625
-1.8118404854493135,2.0694131366736763,-7.521464669297926,-1.892848235353038,-11.39452912599523,-15.387861746729953,-3.181113873715512,-1.9394908493860445,-0.7861525935462954,0.1355339449585277,0.29546066662574183,0.3388671875,-0.62353515625,0.65380859375,53.3125,157.0625,330.0625
-4.540182214919793,-0.6056741661840805,-1.7511675825810182,-5.986134833317163,-1.1415052390902747,1.466027900371931,-1.1951745730346441,-6.157627838011645,-0.7624043195434939,0.2476549213158636,0.3390169906874841,0.23974609375,-0.56494140625,0.6044921875,43.625,149.375,317.625
-1.9330792279013858,-5.341998348050302,0.9092419256827763,14.461993904277898,2.6280279784618528,5.118469057849603,-1.3830807649911774,0.028249514604728528,-0.7363751821349961,0.3534582629596075,0.3860158604870973,0.18115234375,-0.525390625,0.59228515625,34.4375,140.0,305.9375
1.1751463955115282,-7.35987149948569,-0.8578777672557949,13.053666821791026,7.5773752252068265,12.197463871096783,5.453791932248907,1.9803297131796636,-0.7043705950248669,0.45204316171461,0.43681173853049504,0.05419921875,-0.4208984375,0.5283203125,34.0625,128.6875,291.0625
-1.4890050259438585,4.707957045521652,2.731958817029719,-0.9296498966837731,-2.312727770558196,-5.1709021032696185,-2.952835343771558,-2.4050943041975072,-0.6706690129896017,0.5415514583720551,0.4904975502750101,-0.07958984375,-0.36376953125,0.4765625,22.5,115.625,270.1875
-0.49794070330872403,-7.002864426150266,-2.9448458443194583,-5.9032721063287195,-3.517380005715178,-3.272485612046395,-1.0225419249521879,-0.967222034226575,-0.6349814667272252,0.6203738783288899,0.5462815311340057,-0.1416015625,-0.38671875,0.474609375,15.1875,101.4375,246.125
-2.246541817237555,-11.817226685289992,-8.067289461427816,-12.277530233863168,-5.134859397373729,-1.312269386977488,-1.9170694649193385,-1.0365887519811916,-0.5898362798184793,0.6896579584910096,0.6048147248303515,-0.19189453125,-0.3388671875,0.47021484375,27.0,88.75,225.375
-0.5308237616306802,1.1648352102995414,-0.18310229720141877,-0.3644048418523012,-1.3089578384650833,-0.19713936183940062,0.38396613612225095,-1.1913277465784256,-0.5392725295093188,0.7490917020584557,0.6657898612353192,-0.27880859375,-0.25634765625,0.4716796875,29.3125,76.1875,203.125
-5.475949735000969,-3.812798185972676,-2.4736217285422635,-9.819823746165747,-4.231264504717063,-0.5868867586873294,-4.322289464382892,-3.607744181859574,-0.4889859601955508,0.7993486470707425,0.7286289280736954,-0.37060546875,-0.25244140625,0.47705078125,17.8125,63.9375,184.125
1.1594357710571044,1.6693775973574658,-2.3246860462895973,-0.3621072547027295,-4.4126401638575565,-1.6093600152156156,2.0436109317405924,0.7598891092078331,-0.4395596099352003,0.8406227542154779,0.7904721182642235,-0.40478515625,-0.29443359375,0.46875,13.0625,53.25,162.9375
3.0285951154936583,11.683642524372685,5.466264961460571,12.445815961879116,14.118491558267554,-0.735754443856371,-2.306205724782039,0.16653678474758765,-0.3861894362608319,0.8742784269387276,0.8478721200636306,-0.46923828125,-0.2255859375,0.4482421875,28.6875,46.4375,138.0625
-1.1338510627109604,-2.8489665867910343,2.474047897558325,-5.461547431894466,-1.3068099108866316,0.650796369826589,2.4110590522930013,1.2305887915482745,-0.33456829927307635,0.9017723024762192,0.9000425069491266,-0.5712890625,-0.13916015625,0.4169921875,31.6875,40.5,116.1875
-2.2912621367309987,-7.927909637186117,-12.059758062757801,-6.628060176025389,-2.791229155541032,0.22411890289610722,-3.109016176488427,-0.6825995386372398,-0.2880329089013369,0.9247004766110251,0.949364941084744,-0.615234375,-0.0693359375,0.408203125,19.375,33.6875,98.5625
-2.064810480825087,-2.8644207886756257,3.1145934780695126,0.5379469684359047,2.45331272294343,0.5607465192842802,4.174214440064624,-2.6563576876670174,-0.2532230060495979,0.9423816459819224,0.9922496222736888,-0.67041015625,-0.0703125,0.4150390625,-0.5,26.0625,81.125
-3.101073502357413,0.7063000203738903,-2.208107761403597,8.389895169754585,2.401090360332281,4.9571343130634595,2.7706349313567955,-2.323217501985771,-0.2267721051190195,0.9556450048431702,1.0273214334847076,-0.70703125,-0.123046875,0.42041015625,-4.9375,19.4375,66.5625
0.18094635605312287,-6.74639455783786,-1.6574066678165815,-1.3092373566267326,0.15467723973466369,0.45110895469252055,-1.2107646383676718,-0.3915614229513473,-0.4930926469204326,-1.1195217805547448,-0.17656157014340051,0.89306640625,-0.1982421875,0.3486328125,5.0,7.75,8.5625
-0.8351844956728747,-8.32750792032765,-2.457321426680637,-1.3600312370058276,-2.1006213446439297,-1.5607723502580853,-1.2171572424899102,-1.0406262684497927,-0.4940446394126374,-1.1167818918849222,-0.1731657181725055,0.89306640625,-0.1904296875,0.33935546875,6.1875,7.3125,8.4375
-2.566059329499032,-1.9978234987173855,0.09434598857916977,-0.8619471157875469,-1.0729603356926216,-2.817768316830282,-2.52827656860994,-2.3052337418443485,-0.4950811089118927,-1.1150714700575601,-0.16968989795647524,0.88134765625,-0.18212890625,0.322265625,6.75,6.4375,8.0
-1.765413395027131,3.5232661735382775,-2.4225187826554953,-1.5323693172390525,-3.6734725817066343,-1.6514769410995334,-1.2942373250312236,-1.8332888845104132,-0.4979925850856185,-1.1160955800715384,-0.16438755411329076,0.939453125,-0.1923828125,0.2548828125,6.125,2.9375,5.875
-1.1486178378364607,7.370445360472599,0.8516951848897669,-1.558597835389695,-2.4312080966371914,-3.673399125015121,-2.74486191114342,-2.4763946139359727,-0.5112960124669879,-1.1288377037465267,-0.1510087733886708,0.64013671875,0.00048828125,-0.4248046875,2.5625,3.6875,6.25
-1.7259062913359227,7.264834028436722,-2.055679329879742,-6.994986500657676,-9.777372304570006,-5.634774923260326,-1.578405647156445,-1.455756958720618,-0.5123934174143251,-1.1331455272023474,-0.1493516740052767,1.03466796875,-0.08740234375,0.1923828125,0.5,2.75,5.25
-0.32581498229333594,-4.793503488315581,-0.17754101935022462,0.28823942320857726,3.992813717554272,0.2780328827012916,-1.574679920246577,-1.1451898215499698,-0.5095566934217622,-1.122128854106753,-0.1498585056615093,0.8125,-0.36181640625,0.77294921875,5.125,0.125,3.625
-1.9817047739521703,-1.0864659338350566,-0.35074421446164344,-2.107796544228064,-7.3912682652977475,1.3593089090720212,0.15780753153087074,-0.9269282429519385,-0.5142407896768503,-1.1347221109057122,-0.1442422657415169,0.93017578125,-0.0048828125,-0.1474609375,3.4375,-1.25,1.875
-0.43924174033289937,-7.814275414451179,-6.967970106030618,0.4481565029799775,4.343591317703911,-2.9296546740029843,-0.6688418182676843,-0.02323651143730561,-0.5072496533853961,-1.1236355497861674,-0.14791234689649774,0.8505859375,-0.37451171875,0.86474609375,7.375,-2.9375,0.0625
-2.3483595512362863,1.9200033996376322,-1.1659371314982612,-3.9368947542921178,-8.450183090823938,-8.283103033922004,-3.9420942979653057,-2.188122131945676,-0.5123768429918096,-1.137644663541676,-0.1424110392976947,0.9345703125,0.009765625,-0.1572265625,1.875,-3.75,0.875
-2.5504888554682963,-9.781014351678781,-6.23740424274661,-3.4095716735614086,0.07044061829833434,2.8061550372467643,-1.5395682717679284,-2.6640324702306395,-0.5111322994078876,-1.1263795857204189,-0.14405818578863452,0.8662109375,-0.35498046875,0.85400390625,-4.1875,-3.0,4.1875
1.573338018484838,7.901679960867175,4.586718253955018,8.45344381692405,1.776817818431612,-2.116181294027127,-1.3729754750212018,0.8657890863264668,-0.5263439095828623,-1.1352813313138252,-0.13473582008114107,1.00439453125,-0.0361328125,-0.02685546875,-18.0625,0.0,9.625
0.004778310262219033,10.549931790935213,9.730834289673359,2.8426904890834015,-1.8188451311138285,-6.186684465967929,3.3171365597535036,0.32228545149621013,-0.5421080204935093,-1.121003680657279,-0.12613111226511292,0.87451171875,-0.39892578125,0.73291015625,-24.1875,6.0,18.4375
-1.1283565513945375,-15.207674835706356,-4.960591052734593,0.9772368146047447,1.4673935919993555,3.541355781369882,-1.32005759353548,-2.0548103102423934,-0.5690715579794279,-1.111968911867416,-0.1095722991881668,0.83837890625,-0.2705078125,0.31005859375,-32.6875,13.3125,28.25
-0.4181319489224406,-1.0807013062513287,-3.031536012064874,-5.228827056916491,0.23617164426799908,-2.2901833202222934,-2.9076007471288294,-1.6187639109109255,-0.5999125109948306,-1.0938554956662463,-0.09209323630548867,0.970703125,-0.33251953125,0.46728515625,-43.125,27.5,44.5625
-2.641561035026194,-2.287424568938966,-4.7023987002125045,-9.545074928369072,-8.474298282027748,0.3010706393090851,0.21104702488357668,-3.055074769288366,-0.640924561419684,-1.0673222591257814,-0.062168215747213575,0.962890625,-0.46728515625,0.45263671875,-38.5,36.8125,67.625
-0.1333147417985436,2.125138519765702,-2.79080548336827,-8.224105756880636,-4.864941782526752,6.442808386418428,-0.86120383648384,0.36160393514607403,-0.6861376609109753,-1.0330516966350636,-0.02392397838802057,0.953125,-0.5615234375,0.4599609375,-33.375,43.4375,100.1875
-0.4211886806995382,-1.0447992353418638,-3.7896436865849754,-8.66360773352651,-1.572947031261734,1.4166075823952964,0.44399415805444903,-1.9288259995385346,-0.73482392780284,-0.9884053158393146,0.02113158367550763,0.9853515625,-0.7099609375,0.53173828125,-28.4375,51.3125,131.375
-1.270058439323531,6.44170604498622,1.2713801873202093,3.424281527672482,-2.9301706903380516,1.1219290898293408,-1.741666083237778,-1.3066347075069376,-0.7783544381108773,-0.9324221937037106,0.0685825890182794,1.00537109375,-0.8583984375,0.61865234375,-11.25,62.125,162.4375
0.7137742984997932,-5.732204007846978,-0.9342743783777163,3.491373086961359,-4.223138877822186,-20.59481208582248,-4.557803438475905,-0.10114965178198315,-0.8083207066588323,-0.8642149048456165,0.11336866582400422,1.01025390625,-0.90234375,0.701171875,15.5,78.4375,191.0625
-1.2144139008735144,-6.666340880687812,-0.08458766583060588,-6.055333201682953,0.31154891611597324,-8.900674184694749,-3.270282885489071,-0.815480008073711,-0.8288867996676359,-0.7871812420520515,0.15289928201434871,0.939453125,-0.85498046875,0.71533203125,25.25,93.9375,211.9375
0.3857964141459912,7.516473051454473,1.302654483270643,-7.406361385867764,4.163740008102855,15.388195950832866,1.4117619262619903,-0.36628173622838234,-0.8452729233938328,-0.7032584682780226,0.1869659620366384,0.84423828125,-0.828125,0.76904296875,18.8125,106.4375,225.9375
-3.925024955249721,3.11446305874546,-7.073693234745889,-5.43615389178871,-1.1233317499894608,-2.6512554932928447,-3.3946445515327586,-3.2960303265610005,-0.8584148072416823,-0.6125033089821073,0.2183032859339801,0.703125,-0.81884765625,0.8095703125,16.0625,116.125,241.8125
4.690415684170394,8.809713007967325,4.950650693317646,6.2350588249409995,-0.019418642171591317,-2.9891982143872764,1.7254975949324096,2.616518286396219,-0.8643454922366922,-0.5180584306122964,0.2450438951740031,0.62060546875,-0.83837890625,0.81396484375,23.125,126.0625,247.5
1.4912220989511777,1.1789941752170836,3.954488009944958,0.806221649725783,-1.968889220844584,-3.274542984551454,1.0995775232639324,0.6334917036101497,-0.8642180463646049,-0.42064634924119065,0.2700130478940219,0.58984375,-0.81640625,0.791015625,31.5,133.5,255.1875
-2.2812790549440747,-1.1186938242832707,-4.474538551276286,6.353489122186284,1.478377371362911,-2.530531172160019,-2.4992166798387627,-3.3741014210994322,-0.8597376329194542,-0.3202397341516804,0.2941909688222711,0.54345703125,-0.79443359375,0.8056640625,36.375,139.3125,263.0625
-3.8158404811281508,-13.439071693562134,-7.048152394969722,3.265164508378157,-0.132605809886961,-1.2832599835205212,-4.033278462901768,-2.920511913025331,-0.8502460735108023,-0.21883741602925216,0.3173973023044119,0.4423828125,-0.7646484375,0.76025390625,43.5625,144.4375,264.1875
-4.989536282188173,-6.574758921382696,-1.9686723770298447,-7.3595871710706655,-5.112800818267605,3.4681882621965725,-3.3109009132612206,-3.5680352429574618,-0.8384604174814878,-0.11804908706236335,0.3404447751209026,0.361328125,-0.7314453125,0.73583984375,43.75,145.6875,262.5
-0.07913223019630966,19.215191822473592,13.188661753140872,-5.002430241510171,3.5847081134048153,-1.5291996811299906,0.9956626632133299,0.4187818211292771,-0.8210297709943766,-0.018427438837437863,0.3644424695060363,0.30908203125,-0.69775390625,0.7041015625,53.9375,145.6875,260.875
-3.659630870639205,-8.283609473961322,-6.299450171604743,-3.5777413017569124,0.8447441271128726,-0.33211917342523756,-2.0292105506441076,-2.8438089100850905,-0.8023436646993622,0.07967903729122737,0.3904971001700322,0.23291015625,-0.6416015625,0.63330078125,50.875,142.875,259.25
-2.3277603919169785,-9.111605578330233,-1.607247199303766,5.746997492889756,-0.3539546202050886,-10.935888999683526,-1.7352452951251314,-1.9212559647420737,-0.786635375331491,0.1753917607511766,0.42104187231478896,0.1611328125,-0.6201171875,0.59033203125,34.375,134.1875,260.5625
-0.9332350578429889,6.638701569156406,-5.4019245440382955,3.4248636001427455,2.7199487412824443,8.695364833899943,1.2286942288709284,-1.0422521232547053,-0.7686674241815491,0.2672476681689521,0.4550466027567095,0.087890625,-0.59716796875,0.57763671875,30.375,124.3125,256.1875
-0.34299279342031913,-0.12372456886333841,-4.410557886185415,3.333921136259537,2.7709492139764285,11.550804264201657,0.9594695481963152,-0.4148033263342312,-0.7422817883293018,0.35332091793731474,0.4916588498341458,-0.0361328125,-0.55322265625,0.5390625,44.1875,114.0,244.875
1.177757891736344,1.1675970224098233,9.470990353424414,-10.412111140342192,-11.073699350781945,-10.07351784976335,0.3397295135504054,0.5546061547067087,-0.7108808267592168,0.4336944049510785,0.5315667086481549,-0.11376953125,-0.48876953125,0.49755859375,46.4375,104.25,234.5
-4.301034101561104,-8.822832080741328,-5.346324531295872,-2.9602808994032417,-6.281059954101065,-5.171714618525892,-4.037663347710712,-2.7133882643168112,-0.6788920725980269,0.5080664769975679,0.5752741744467065,-0.21044921875,-0.41552734375,0.46142578125,35.25,93.5,223.875
-1.346986956915269,-2.7176978495922954,-1.3175256237620345,0.574538437468573,-0.5850912642340748,-8.18622525897663,-4.66384375327516,-0.9339763121154184,-0.6488325692148162,0.575221271259469,0.6220769768858664,-0.29931640625,-0.39306640625,0.45654296875,17.3125,81.5,210.0625
-0.8336587414816983,4.350022736912729,-2.330120017611389,7.214965444074124,3.4355177509950345,1.3301646835389274,0.5496614529367724,-1.4553379032300633,-0.6150907341591324,0.6348393015903966,0.6702086347989666,-0.32275390625,-0.37841796875,0.46240234375,18.9375,71.8125,193.625
-0.5854523753229817,-5.251050911833638,-1.3413748812678967,-8.9664094716571,-2.3176421419820437,-4.359636489827235,-0.6897073345451504,-0.87061393127825,-0.5742383525293032,0.6875319063915932,0.7191687499003541,-0.40234375,-0.31591796875,0.43896484375,31.125,63.5,176.9375
-2.7650013377656966,-13.05712144132135,-6.8195519156579465,-5.947566870168731,-0.018229672306094236,-2.2878008000864147,-3.1951229256459404,-1.445983945156936,-0.5328557860190708,0.7340023316882007,0.7690126894647499,-0.4951171875,-0.2724609375,0.4208984375,25.5625,55.5625,161.875
-0.017449307669252803,0.008122179064519397,-1.77381028685396,5.906664049655045,-0.371353512113621,2.8612067980376454,1.9712051876323005,1.6594214843455415,-0.4941585299937694,0.7743456345244406,0.8203728619707316,-0.53515625,-0.24365234375,0.43896484375,10.25,47.5,149.875
-3.658673476466099,0.6899961301760523,-2.8466391463213196,5.747537794197723,5.3528411399775155,24.04250986056104,2.4599437457210236,-3.1835642394630064,-0.4564775876675895,0.8083589652562496,0.8707976143899572,-0.55859375,-0.21484375,0.47216796875,4.6875,40.1875,135.0625
0.7749794790076621,-3.032491885433967,5.846113550937071,14.151374577209307,5.161609723607353,6.325759813596578,-0.35657349052733767,0.17839518524850903,-0.4172338213708404,0.8374974143634911,0.9209876386338204,-0.6044921875,-0.17236328125,0.49365234375,6.5625,34.0,123.0625
-0.9331007617361972,1.2131572975622507,-0.7006932399356853,-0.6430646110263838,-1.711121044238732,-1.437959587383075,-0.9261773134810914,-1.1044439167940512,-0.265121168868418,-1.171937500397431,-0.1788252433561123,0.90771484375,-0.0888671875,0.4072265625,2.9375,-5.75,-4.8125
-2.365974053310718,7.319939754219551,-2.35289643682961,-0.6341397947483458,-1.9365156884253913,-2.8825405719330486,-2.525817212645394,-2.207445570443949,-0.26097343113688354,-1.1736557229784093,-0.18219997982132133,0.8984375,-0.0849609375,0.38232421875,2.9375,-4.75,-4.0625
-0.8633532812026462,5.826947878841026,-1.4932117181925402,-1.7740792761774018,-1.6660796021406963,-1.7895271358339067,-1.247887109368324,-2.1370409436237283,-0.2577654703753162,-1.172989369145908,-0.18480403490971992,1.09814453125,-0.13671875,0.5703125,1.5625,-5.75,-3.5625
-3.0401565576604574,4.965790496928566,-0.8449333833542791,-1.865334204636059,-2.1030748396447314,-1.4526529820834464,-0.8734005493161225,-1.9123523888090572,-0.2510120184480201,-1.1891106398611488,-0.19048880134587776,0.7783203125,0.16064453125,-0.328125,2.25,-2.25,-2.3125
-0.6684367005993502,7.547113089627363,5.756307169904123,0.9925371577743121,0.8650916059932956,-0.6624372674487327,0.5377842131262428,0.19801158329027602,-0.2497168707365783,-1.1866861551431318,-0.19184308003321032,1.146484375,-0.15380859375,0.91015625,0.75,0.0,-1.0
-0.3582767745581491,-0.16169608813073172,0.24592593830403478,-1.495999196990126,-1.1812887158571332,-1.1586116708538108,-0.6755838284630256,-1.2586486518139526,-0.2545126636578524,-1.19409926326284,-0.18533067936846245,0.68115234375,-0.0849609375,-0.0869140625,6.0,-0.625,-0.25
-1.5759736240379307,-0.6647049534194,-3.280210143969752,-0.9069777145125728,-0.621294316017258,-2.7172520451298765,-0.4709974930776899,-1.4451326452443987,-0.24799058716075084,-1.1829761958136458,-0.19110964271759692,1.1484375,-0.1318359375,0.9287109375,0.625,2.0,1.125
-1.2622859976204743,-2.4362749370762766,-2.1284983929707635,-3.4043317365558066,-1.4379205647830655,-1.1413393701412,-2.0332350531555505,-1.9775256654936728,-0.2518894096178434,-1.1936147319275006,-0.1856011017099423,0.6787109375,-0.02001953125,-0.23095703125,5.6875,0.9375,1.4375
-2.4778379848021808,-5.044113211192519,-7.601647521246497,-2.3664851281685824,-2.0303406397693458,-0.4168453073080869,-1.3582984649911032,-0.9193251175040255,-0.24941590095773344,-1.177376013412298,-0.18756443481408347,1.109375,-0.20849609375,1.0693359375,-0.375,3.5625,2.875
1.1110583050178402,0.29880477760624535,9.318688423288565,2.592741611186713,0.39497867251278657,-1.8838045234695027,-1.09389176889892,0.08398349820160694,-0.25271464983838005,-1.1912057946277066,-0.18314951986090666,0.724609375,0.0615234375,-0.35595703125,3.125,2.0,3.5625
-1.441951613729925,-1.709389339084631,0.09202774919245087,-2.588293016922916,-1.6320812531707036,0.5768450273200548,-1.6882838534805487,-2.145639396849056,-0.2558985282924241,-1.173029182085371,-0.17899340807008796,1.00537109375,-0.30615234375,1.09716796875,2.3125,4.3125,4.3125
-4.200746308796453,-3.3848762438467497,-9.30501349869667,-4.72964346515319,-0.5455774997906809,-0.7829942868501732,-2.5776632270465205,-2.946528357089178,-0.2550761419823315,-1.1850471793727693,-0.17848170405061925,0.8662109375,0.12646484375,-0.248046875,1.875,3.9375,5.625
-1.511173860748664,-4.655844934170778,0.5789077640674176,-6.4580910958546145,-6.022974560607605,-3.895210522094801,-1.504048291698429,-0.801183756766253,-0.25970315580972114,-1.1789265761531964,-0.17587098914216762,1.087890625,-0.0849609375,0.59228515625,-8.125,6.1875,9.375
-1.0115776794835976,-0.032699043392182076,2.9308173037500618,8.148724277096685,5.34599089781817,0.3897962897384734,-0.8047641444941646,-1.7813205387733508,-0.27307353672348444,-1.1752371297722477,-0.1671211155091098,0.89697265625,-0.08056640625,0.3623046875,-15.875,7.125,13.25
1.257415250253932,3.0784160590074228,-1.900648983461881,-3.9183341559756397,1.2651812875441946,5.331860031323763,1.176594395034609,1.0876147598991581,-0.2982955480655245,-1.1705235847422917,-0.15359976329213404,0.92919921875,-0.111328125,0.36474609375,-36.125,10.25,18.4375
-1.1473243516856686,-4.964180966574373,-1.3555402126400231,2.8931685793816344,-0.631363054392078,-1.0478849468582216,-0.38742138648673463,-0.7624802112088467,-0.33069885712833075,-1.1635384318722235,-0.13659607498732046,0.9453125,-0.12451171875,0.36767578125,-48.375,14.0625,25.0
0.8421230190539085,7.258798381593405,1.0360128087534637,3.5561816747333412,-0.9665613882560822,-5.949150838138408,-1.335166932435486,-0.5455274551888364,-0.3655067948063957,-1.154225053857012,-0.12068881182495188,0.94140625,-0.11572265625,0.380859375,-58.8125,19.25,28.1875
-1.856806442422137,-3.710068781892111,-0.5810228488118413,4.80447173299078,1.9794868208823082,-1.7708413887927663,2.522510877083365,-0.2297690960263059,-0.4108077141387407,-1.1405837140134618,-0.10026915547809154,0.94189453125,-0.1943359375,0.41357421875,-75.625,26.25,35.9375
-1.1078895600061156,-1.1381112406765856,-6.745590740560311,0.8676352433579149,-1.7359298232067497,-0.7631470995087088,-3.0432661121405125,-2.0457442405497592,-0.4661891327687423,-1.1208174601148078,-0.07093004757456448,0.95556640625,-0.2724609375,0.42041015625,-81.4375,35.5,52.0625
0.6322719509149967,-7.453909328484062,-1.8270908374808505,-4.806611854012797,-9.099509580605226,-9.275496431198038,-0.6470403365110347,0.01956143338862286,-0.5252699325450617,-1.0937237739133947,-0.03751646635989809,1.0107421875,-0.3359375,0.46435546875,-81.625,47.0625,69.875
-2.9080945418943633,-16.736615257997713,-10.995016164473798,1.8820794357444657,6.358757500364329,3.3845577109060794,-4.802590271615704,-3.4942257240223293,-0.5970220114333501,-1.05421992894315,0.007190436819656942,1.0419921875,-0.5380859375,0.52978515625,-88.0,60.5,99.4375
-1.8119699013652213,7.147267421234662,7.421192534281011,0.4328095905720528,-9.816858051333403,-7.047412735438444,-2.4757247113031893,-1.501814940707377,-0.6666849027304641,-1.0018856121892972,0.05603452130279977,1.07958984375,-0.75146484375,0.609375,-77.75,77.375,141.9375
-0.7595448456126146,2.5066319763892704,4.094083594457018,0.058405765961982783,-8.016672753679114,-6.852449064969614,-2.3807691017293613,-1.8795092965752163,-0.7251263684457553,-0.935990411696734,0.1028864365588412,1.07568359375,-0.8349609375,0.7099609375,-55.375,94.25,175.125
0.6477951596589697,-7.4492373494466495,-2.3758007317319474,-0.9535671008978005,8.332113042222872,11.17422836019591,-1.1067322158815158,0.08101201408520407,-0.772889061725346,-0.8588787080425235,0.1450206184968483,1.02783203125,-0.88330078125,0.736328125,-41.25,109.25,201.875
0.9547524533004212,-0.49900175286912757,-1.311245542777313,-10.93014586294512,1.182491735834584,8.999675051817336,6.029615109134514,2.244054486235603,-0.8141587791554739,-0.7730592442081596,0.18299768431251165,0.90087890625,-0.93212890625,0.7685546875,-37.875,117.6875,224.6875
-3.5154045394244844,-12.55408242849364,-0.6969166573132118,-7.368571159449016,-3.2303691824370935,-0.48711659635832577,-3.544482063147374,-3.4271502420017685,-0.8459178807219122,-0.6804042947267356,0.21752719159237485,0.79833984375,-0.9755859375,0.79736328125,-24.25,123.0625,243.3125
-2.043534907848295,-2.320858175754663,1.1640868813672005,-13.495031473556244,-10.990189390831377,0.05416719892215069,0.37463896840739974,-1.9347699670016336,-0.8653108276824582,-0.5829159435047795,0.248646955706824,0.74560546875,-0.98828125,0.79541015625,-2.3125,128.625,257.0
0.6999752614206526,-3.519586604796815,-10.91221942979925,-5.420260678257329,-3.7353593781251986,-2.7189299878027837,-2.1374143284359213,0.3652940161806713,-0.8735606671842157,-0.4800050669437928,0.2790581418964023,0.7119140625,-0.95654296875,0.78857421875,20.5625,133.5625,274.6875
-0.22086421354626457,7.036479332790533,7.766127847957279,12.322695428428739,3.43292930542058,-5.579151448498272,1.3288314810860373,0.09162632899530283,-0.8695322775942056,-0.3746836013538877,0.3071162034480974,0.59521484375,-0.88134765625,0.76123046875,44.75,139.6875,280.1875
-1.6775601596487282,-6.528026640017295,-6.3803426301492925,-7.867414867053193,0.76644529688465,0.23634789675535323,-0.5307011156362808,-0.19677477518075095,-0.8538117872450257,-0.26903529323189795,0.3331232260625086,0.51220703125,-0.82421875,0.70751953125,68.375,145.8125,278.375
-0.04013447646880393,9.37944622939442,2.097093377881015,13.882120469476275,6.211077123335419,6.958570214204075,-0.32633346645572153,0.15229992639853093,-0.8344844051287735,-0.1625976752668003,0.3607775091009297,0.451171875,-0.701171875,0.65576171875,71.9375,148.0,283.625
-0.3459345565769315,12.974461408811422,1.9310480349054027,7.059190148915938,5.737462236620214,3.6373316764766854,1.5857392458458297,-0.23033415532228044,-0.8198169233842083,-0.05612425542370416,0.3917869563154189,0.30322265625,-0.62841796875,0.6396484375,51.3125,144.375,287.75
-1.2175511652302133,2.257362159463825,0.9827475339802265,-2.9987643917566675,0.2095803587706619,8.250440711548618,-1.2727988717635523,-2.5293402148731023,-0.8054105217074574,0.04716149153316848,0.4248361477270981,0.21337890625,-0.62109375,0.6181640625,41.125,138.0,283.3125
-0.4701923722670281,-7.1102871706081245,-6.079967411638745,-4.555932217410939,-4.215792658065937,4.901755662374213,-0.9286295133132639,-0.6411619222142073,-0.7858938711138626,0.1460691838068187,0.4602569790439763,0.11572265625,-0.59521484375,0.57958984375,46.125,129.0625,276.375
1.0693203735027028,0.3133989996276877,0.10004075810309734,-6.777554041855642,-0.6714033178049365,-12.107982095788696,-2.1077429594750154,0.05710213324251485,-0.7597362831978831,0.23965806298185616,0.4994251427802702,0.02734375,-0.5361328125,0.57275390625,53.4375,117.5,268.75
-1.9677889102628874,-0.14111092902066502,-0.23243938377683449,-1.4205313718815893,-5.5188595597746115,-21.071817358376965,-3.755413705157207,-2.078364359847235,-0.7297680475549417,0.32756929886321434,0.542438306687861,-0.03515625,-0.4892578125,0.55322265625,51.0625,107.75,260.125
-2.3419513368395,-2.32238942266321,1.363147958663889,-3.8848339711979265,-3.6686445296109405,-1.5248932848523966,-5.477628277370554,-2.239909501737474,-0.6987708604854456,0.4090946385270359,0.5890770743189201,-0.10498046875,-0.46435546875,0.54345703125,40.5,97.25,249.5
-2.221483618923129,-8.759478283229074,-1.0823578529878832,0.6459678100607038,-1.231405300392964,4.700074662797639,-0.6790018877988251,-2.8770914767500235,-0.6658448367343771,0.4837685571209152,0.6394723132438223,-0.1650390625,-0.48193359375,0.54345703125,32.4375,86.25,238.4375
2.444657256383014,10.390865347298156,0.17530618914847787,-11.172204172024745,-0.6757274491942832,-0.5865468069937405,4.061264832739996,2.4498237915101853,-0.6251720103797785,0.5517900996411456,0.6936738480393081,-0.28515625,-0.4482421875,0.5234375,40.4375,76.0,226.625
-3.6058601206371383,9.735217311095452,2.9079875500347163,4.868314630203585,-0.4596928210568277,0.7438474950506047,-3.427324129231886,-2.683489064573658,-0.5803420654016329,0.6129607008202614,0.7487484638726007,-0.37646484375,-0.34375,0.48974609375,41.875,69.8125,208.625
-0.3482677756275334,1.8186006817300104,-3.9838488849449987,-10.191229188021689,-0.7404027481808756,-0.5059042097386426,1.6127988423847417,0.07255780068006337,-0.535068742723013,0.6667613323836743,0.8040560694706397,-0.380859375,-0.26318359375,0.45654296875,34.875,63.875,189.5625
-0.03190386625769104,-1.9803572153098017,-5.624412475833094,-8.7585516050643,-5.225489318570601,-10.31922131892338,-0.3714474114875969,-0.20300857031282915,-0.4887295639178868,0.7132477893768684,0.8593655416639027,-0.46923828125,-0.2080078125,0.43505859375,31.8125,55.6875,171.25
-2.5495989266739256,-11.590910886839218,-7.123279882159655,5.4249098348466,4.019201881198827,-0.6114694018555793,-2.585231823924176,-1.0335620998318076,-0.44336755390123184,0.7534959719731079,0.9127639601388952,-0.5810546875,-0.1474609375,0.44873046875,26.1875,50.75,152.3125
-1.6763309449845247,-1.8921080094615288,-2.0609632751410385,-1.6427749821174402,0.17630272649548315,-1.3324986149485372,0.02639115297174065,-0.16030382444602992,-0.7246989025134098,-1.083227884908816,0.25095338314144666,0.88720703125,-0.30126953125,0.37255859375,-0.625,19.1875,31.625
-0.2849866104493488,-13.020237701345089,-0.6856852879013868,-0.7227619118422339,-2.5630240410703786,0.923835079670037,-0.3331593560801817,0.5138138836873054,-0.7311051250324208,-1.0712831431372112,0.25798730495142075,0.880859375,-0.2978515625,0.365234375,-1.25,19.0,31.3125
-0.22144469794511046,-11.329135922509588,-2.0761781269256834,0.02631556744051056,-0.83257291375593,-2.436093450131055,-0.7016513463157685,-0.05138913655803154,-0.7384106915193789,-1.0600402077861757,0.2650189717814583,0.8916015625,-0.2958984375,0.353515625,-3.75,18.4375,31.4375
0.3496610262735222,-15.927011826614063,-0.7710803867241255,0.23907642771914872,3.7069346069179083,1.4860509479599064,2.0163156489961795,0.723188825532977,-0.7454289952963914,-1.048507044350532,0.2716540188341398,0.71728515625,-0.2587890625,0.28125,-3.875,19.3125,30.6875
1.3925100361553064,-11.305203237957716,-3.860036606444022,-1.0844093652105453,-2.4348644896834815,-7.424577546374995,-2.1050238514711603,0.414445604409592,-0.7486697096521784,-1.0288409145904391,0.27521803425102465,0.96728515625,-0.576171875,0.73193359375,-3.125,19.0,30.8125
-0.8026156889599154,-4.789950940769873,0.4441743611716945,-0.6336345413538893,-2.605608537474039,-1.5059415905880682,-1.0721671487253757,-2.0211018542067705,-0.7681340187992485,-1.0240525911811982,0.29249572091494525,0.62841796875,-0.19677734375,-0.18798828125,-3.9375,20.0625,32.125
-1.8217543600727746,-8.588978862348466,-8.635375452777872,-4.147294065178672,-8.290911166538587,-6.435086139097424,-1.4784201928997414,-1.661243051341366,-0.7615722505150609,-1.0067476220480895,0.2844296120257829,1.11865234375,-0.34326171875,0.85595703125,-13.8125,23.5625,34.4375
-0.052377630839612256,1.3676580281667374,0.6551032268605492,0.29701255679747296,7.387941655872058,3.0477636806879924,1.4964744652461994,0.7254458752734892,-0.7846317764709574,-0.9952486209372919,0.3021751955398713,0.6162109375,-0.4072265625,0.0,-12.3125,20.75,35.125
-1.2012861491507887,-6.548819091161304,-5.688200894627541,-0.339928644028729,0.09454119074414848,7.767898306252565,-0.6692047726923114,-1.8312986243674922,-0.7804233844960211,-0.9810098495068248,0.2967004539992086,1.05615234375,-0.30322265625,0.708984375,-12.0625,22.875,34.375
-0.45769331769713767,-7.158307136773574,-4.130138932186063,-5.785276664827025,-3.627021366740051,-4.658121098764852,-1.8004937769734932,-0.9719242847582453,-0.7979999032554159,-0.9670546603064836,0.3116180896094268,0.6669921875,-0.52685546875,0.14501953125,-4.6875,21.4375,33.6875
-4.138625024883956,-2.921921969358944,-8.850524809526677,-0.7466278633389871,-1.8129768672666873,-2.990403160310017,-2.825363685639105,-2.49923640528962,-0.7984910022959044,-0.9525261569194282,0.3096961212655462,1.0869140625,-0.30419921875,0.625,-15.4375,26.0625,41.875
-2.3425044142666502,-4.050599334440373,-3.415573071770276,-11.034307569743067,-7.427091819869153,-0.5496592794001788,-0.24766436024638797,-1.4660943354255447,-0.8230951916104439,-0.9295718424858466,0.3275562811743123,0.74755859375,-0.6328125,0.25927734375,-19.3125,30.25,55.75
-0.8303133897991702,-4.565971085566085,0.6522599457396128,0.9125855831308786,-4.734525823914116,-9.545769209598733,-4.316503322065323,-2.1349220280954024,-0.8329178698881942,-0.9042481973218895,0.3315118765072086,1.0888671875,-0.39990234375,0.63916015625,-27.75,40.5625,71.25
-0.8375772089417629,0.46495024376256866,0.16856887560346204,-5.295993594103192,-4.850061554784148,-0.27667995590425,0.9109973558194596,-1.5008786818698128,-0.8501909999025302,-0.8687590763111898,0.3420238263301862,1.099609375,-0.6640625,0.615234375,-27.3125,53.75,90.3125
-1.0092537336913945,-5.478328279060963,2.103694739547217,-9.575519291550405,1.909840237610367,4.451977018518867,-0.955114408898664,-0.6246941274103153,-0.8695017247113337,-0.8231892173494427,0.3553619003093375,0.9365234375,-0.7822265625,0.57861328125,-25.9375,65.75,114.25
0.9697163087692414,5.209617269625378,-3.5213412709788883,1.0730414440356373,-2.3093235082654924,-6.071987703415214,-2.763948168325732,0.517930362306823,-0.8916394813911983,-0.7657289663539779,0.37198117583535706,0.94140625,-0.900390625,0.6259765625,-28.75,78.6875,146.3125
0.4979247831213366,-5.37350075753506,-8.559817723042569,11.377065871017932,11.118689642844023,10.463820200851103,2.6808489492454757,0.1255229481727902,-0.914586423128508,-0.6973694854091802,0.3907988293751842,0.9150390625,-1.0068359375,0.673828125,-28.6875,89.75,177.1875
-0.012884159119884522,-2.4039097202773836,3.7015618564948514,3.7053660798962023,2.962203058758545,4.8802958916009205,1.840120318413211,1.5124486859313497,-0.9343434248273342,-0.6180812465834564,0.40905967958474376,0.80908203125,-1.08984375,0.71630859375,-23.625,103.5625,204.4375
-1.6432539184222057,-5.921276022768883,9.541995834820565,-2.098585771541197,-2.8884245945891895,-9.759317042831775,-2.327784187662635,-1.7051061089615909,-0.945956907702392,-0.5302894404036034,0.4271565209667075,0.62841796875,-1.13623046875,0.748046875,-4.3125,112.0625,226.6875
-3.9797996412663785,1.2210665795567441,0.7505267477361727,2.685014383937282,-7.296785939821878,-12.535941229545521,-6.649340081251463,-4.387124015806369,-0.9391818493510954,-0.43759384728138906,0.4446338638164173,0.49755859375,-1.0556640625,0.73046875,43.25,119.4375,239.375
-4.409993709200606,-6.366178763874392,-6.137211546088033,2.3175031844942007,-6.826483444580734,0.37334875933381495,-3.351121092839853,-4.264137213476293,-0.9181083846786108,-0.3420368075451513,0.460331466029526,0.46142578125,-0.77880859375,0.7255859375,75.8125,130.875,245.625
0.4422760727911364,2.0611872138844918,0.7980775483955819,2.9867598280713477,2.6439281397210634,9.675959456368023,3.5350775823148073,0.9205658381612923,-0.9024994524067576,-0.2450982594932759,0.4745908381108039,0.3955078125,-0.638671875,0.70068359375,53.75,140.5625,246.3125
1.6573495173013217,8.696550320429031,8.681796029729702,8.704489920495744,4.545964274670191,-5.9798793639931285,-2.2704010771461545,1.2490900029058791,-0.8961124737129501,-0.14820467688768132,0.4898398512455786,0.28466796875,-0.70849609375,0.65625,26.0,140.875,246.1875
1.6807589415913065,1.932526342841247,6.281413140768016,3.778896501634789,1.9741009327876329,-6.673877146862674,-0.34381653037007154,0.4850129505437681,-0.8882040186119096,-0.052554432932799086,0.5075406062276625,0.201171875,-0.77197265625,0.63720703125,27.3125,134.375,247.0
2.5120327735448544,-4.929201402634942,-4.273925578763735,-5.660047293253092,-7.871034059887207,-14.051233630001574,-3.6852043644059105,1.2458478339116508,-0.8683165793268901,0.04001150113606963,0.5259018150329112,0.19482421875,-0.71630859375,0.65966796875,56.6875,131.5,240.9375
-3.02656531649179,3.0364703486051456,-7.485183046517671,-2.284703134661654,2.0067202353089884,6.850859305299791,1.9537290953941406,-1.2912459472530904,-0.8406590760263012,0.12996817763863933,0.5449279007949132,0.14990234375,-0.611328125,0.61767578125,73.4375,131.1875,233.625
-0.4488862854794626,-0.3092875139945714,0.9930400149568837,-2.464570947712996,-0.8175376251372956,4.969508308950073,-0.1475995992377312,0.3449762438398241,-0.8187033509411995,0.21682349655344785,0.5672697663178567,0.04541015625,-0.60595703125,0.55419921875,52.125,124.3125,229.0625
-5.089306027264141,-14.116846025291299,-7.280828372531742,0.9096622848772374,-5.413881775948678,-5.238048114102474,-4.768270619172159,-5.9716690886480706,-0.8016461896018596,0.3004790154042201,0.5955670236663637,-0.05615234375,-0.66064453125,0.54833984375,28.8125,110.5,230.75
-3.0863147180867854,-0.36707736112835304,1.4001797770903996,1.0966022990052835,1.0855852991691297,10.328378834535716,0.3268690465948242,-1.78170763983217,-0.7774578921907909,0.37976387582986776,0.6283642197915635,-0.08984375,-0.65283203125,0.560546875,39.1875,99.625,226.5625
2.1993716697340044,2.3112626339632283,3.2818620785916877,-0.8730223297279488,-0.6494019102512311,2.821669778095293,1.289523658622203,1.3967424253333875,-0.7414257320499426,0.4537162121920418,0.6633873409457965,-0.16064453125,-0.587890625,0.533203125,63.375,92.625,215.625
0.8127803149005727,-2.496489458225497,-5.195228267523933,-7.444723998548207,-3.157266248777818,-5.79479099409804,-0.6322792795072809,-0.34683777581583697,-0.6997038753616562,0.5218310330799465,0.7015999602806455,-0.23291015625,-0.51953125,0.47509765625,69.625,84.4375,203.6875
-1.684833548648133,3.6787087461603605,-5.112819027928395,-5.742837322504299,2.732055126741245,-1.5218973716723152,0.25557178028146466,-0.2783587112034041,-0.6553514440121282,0.5842602054670657,0.7434296683037387,-0.3115234375,-0.46728515625,0.4580078125,65.0625,76.25,193.625
-5.099911786520078,-12.985228788163978,-6.16765079765457,-9.855211519426764,-3.1422120747208675,1.8081461955525104,-3.2345991958231024,-3.563642703733038,-0.6101565808858105,0.6407481563953908,0.7890213454739097,-0.3740234375,-0.37060546875,0.4453125,55.0,67.5,182.3125
-1.913235852577749,-3.594492425408925,3.8934452690885992,9.246049435585244,-6.201945277793009,-8.217146172166805,-3.2991454849321595,-1.6436645300619546,-0.5667069603160002,0.690435857412211,0.8357300794532498,-0.40966796875,-0.3193359375,0.45458984375,42.3125,60.4375,167.3125
0.36948229878237804,1.5538601874428088,-7.143208533598612,-16.462219720760302,0.5173591918663731,4.406596459644134,1.1276505705926434,-0.015794358668886125,-0.5222126324289312,0.7338141312979245,0.8835711548772579,-0.45556640625,-0.29345703125,0.44482421875,38.3125,52.5,153.5625
-0.9343060053627907,0.23026908941443583,-3.848942059777412,-8.355960223788239,-1.314469604032389,9.172460449007025,2.233351987630763,0.043006139022271676,-0.4760184512756535,0.7703779675098948,0.9323739662273032,-0.48974609375,-0.27099609375,0.466796875,37.25,43.4375,140.3125
-0.452286020189736,-3.6914093668304835,3.039902941005108,2.626339602712733,0.45731027087610576,-2.1316842930016895,-1.1649759804623818,-0.7401449719775796,-0.4279558305768295,0.8009958901074762,0.9795603272336192,-0.537109375,-0.2099609375,0.4794921875,41.75,37.1875,124.125
1.2491041116739583,4.368081412672515,1.1843293012821563,7.990192239426715,3.4962275388342388,-1.8533671803588658,-1.1836095546041883,0.6756858891193753,-0.3830577730901081,0.8261661416233926,1.02271607713135,-0.61181640625,-0.13525390625,0.47509765625,38.3125,32.0625,105.4375
0.658112948288982,13.035649738109223,2.268868980273495,-4.524402809131737,7.793049537861785,0.6980476407875915,-0.9753976316090798,0.25617941733798566,-0.3436568427719297,0.8472237998521958,1.0629267399336204,-0.65966796875,-0.11083984375,0.4833984375,24.25,25.625,89.375
-3.1570280186015505,-5.269029750943621,-6.532825329921769,-1.5293377736539369,-4.830695342888648,3.329071354203055,-1.4994591970686801,-2.0901375661623547,-0.3110631910416114,0.863852182968048,1.0977672041839248,-0.69873046875,-0.11572265625,0.49755859375,16.0625,20.25,73.25
0.49221330380513867,10.22644003996273,13.96969692475047,11.852516375205264,6.446013214797608,1.3097050740806568,1.745647042349122,-0.12653980267059312,-0.2831567307139289,0.8766357169352883,1.1257425388118247,-0.72705078125,-0.09814453125,0.52001953125,16.6875,16.1875,56.3125
-3.735331644826546,-9.991162279778733,-3.471832651594582,-5.977146366088628,-3.765123043985587,-8.244258910309508,-3.2777512619313702,-3.2091823754020514,-0.2597011405177597,0.8870167150303331,1.1478403919672022,-0.75,-0.0732421875,0.5146484375,15.1875,14.0625,42.625
0.5252568845158798,-0.10836106236812826,-3.831560943760686,-1.792402072844839,-2.576815766270798,-4.111978813104812,-1.2133884997727469,-1.1855564379818888,-0.2431145758460938,0.8949166003704313,1.1679495938651598,-0.72314453125,-0.072265625,0.53076171875,0.5,10.9375,36.5
-2.993456588820427,-1.4304848544305795,-3.9870590415150216,-1.8523809797577306,-4.074308339342064,-2.9001231178554843,-1.8131316417903527,-1.6110806512225557,-0.23230026220142536,0.9002612155603849,1.1834313819530844,-0.72412109375,-0.10498046875,0.56396484375,-5.25,8.875,29.125
-2.405206336041142,-0.8470741255272826,-1.032242476056405,-0.14452748922007874,-1.6770528019141842,-1.3926754200310798,-0.642812212621469,-4.062101244380635,-1.1156777883356843,-1.377153311726019,0.29089815752763715,0.99365234375,-0.09228515625,0.06298828125,2.0,-0.4375,-4.5625
-0.29775612297361587,-0.5522331775997846,-2.0303998827112903,-1.2355064810764047,-0.9099136957647457,-2.850020058231188,-1.3691927137875435,-2.445784589352826,-1.1074891234131292,-1.3805007805970255,0.28235320365904065,1.00390625,-0.11083984375,0.07275390625,-1.5625,0.0,-7.5
-2.8027824540045083,-2.1023735661384078,0.7233092896975697,-2.886219019613179,-2.345598271670329,-0.2809466891112761,-2.2214114457185135,-3.2603659354367664,-1.10215886265007,-1.3842459615203468,0.2757028698939176,1.0,-0.126953125,0.06640625,-3.5625,-0.125,-8.0625
-0.9266710506986248,-0.34128313383090714,0.07774816643075597,0.3094539587823068,-0.6194494591532299,-1.5136787239664202,-3.624681425483347,-3.535916974837593,-1.1022285314489184,-1.3880617286689003,0.27431270005512914,0.81396484375,-0.11376953125,0.01806640625,-3.4375,-1.0625,-8.75
-3.3516225137417726,-3.1237025080669554,0.5342667641583485,-3.9451013434810345,-2.574706853916012,-1.3787009226158666,-2.039925085232127,-3.5940243265337077,-1.0966089660324276,-1.3919048225520618,0.2664865881630063,1.05712890625,-0.08154296875,0.07666015625,-6.3125,-0.375,-5.125
2.084789337776433,-1.0968759552343768,-1.6409954559908326,3.4928048901788635,-1.1828122144424826,-0.2836250597275818,-0.5935036168806945,2.427161845316651,-1.026147550015896,-1.385886618814216,0.1929771596357208,1.24951171875,-0.177734375,0.7236328125,-11.4375,-0.0625,-1.25
-0.26114875989846364,-0.958519896817213,0.7248534926057225,-2.390107203459735,-0.2611982879761651,0.026438312820489505,-1.4229588729237324,-1.2528989402978723,-1.1086246362565693,-1.388549745869858,0.2713744064505093,0.73291015625,-0.27099609375,-0.48974609375,-8.75,-1.875,2.3125
-1.2568012108067148,-0.22193856260764158,-1.367916518795708,-1.3003676236376795,-0.7443597450180791,-1.7531107031663264,0.146834304276281,-0.48320074383717365,-1.0531887092828038,-1.382649914171875,0.21215271226922897,1.20556640625,-0.10595703125,0.62451171875,-14.625,-0.375,6.375
-1.2927468168835043,-0.7125474715373008,-0.38637388704488784,-1.4596710953100054,-0.7660975762648541,-0.9950749304929493,-1.141498093748388,-1.0705533819299389,-1.134287146916479,-1.3833652517659811,0.28944888930069096,0.72998046875,-0.3173828125,-0.4716796875,-7.375,-1.125,4.25
-1.5104056605159417,-1.4600538142297612,-1.793713336129131,-0.5140824345992198,-1.8370104358369774,-1.579359219342763,-2.0138428510367685,-0.698027219758753,-1.0736669481416496,-1.3771518017543998,0.2265812007052753,1.22119140625,-0.1474609375,0.64404296875,-9.8125,1.4375,4.875
-1.0637741314123697,-0.42817838237097283,0.23542071926423647,-0.684645236278847,0.667957341084795,-0.11363751264509876,-1.0516635125050025,-1.153243700268623,-1.155136679731351,-1.3772516785172797,0.30680089796991755,0.73095703125,-0.30078125,-0.53759765625,-0.3125,0.5625,6.9375
-1.0910506811400673,-0.2951784073321254,-3.2107470620766194,-1.0564339591998142,-2.299527017476627,-0.7379847744926995,-2.0233356868003622,-1.6109367811748898,-1.0908789400739258,-1.3698569910543248,0.24120361263045484,1.2255859375,-0.125,0.703125,-7.75,1.875,10.4375
-1.2122828665540324,-1.9854490861155576,3.720438560884059,-1.373664312545639,-2.2509945403954688,-3.2392653517414263,-2.7960678405354336,-2.2206905051684496,-1.1799679437538328,-1.3699232989601795,0.3270728645410668,0.71923828125,-0.26513671875,-0.5810546875,-5.0,-0.375,12.25
0.17557553726130667,-1.147649204406913,11.639722089980207,-0.967284421962413,-0.795337725651633,0.27287293517955846,-1.2173914267171582,-0.19127924543117125,-1.205423334292103,-1.3666872187211825,0.34976093129009383,0.736328125,-0.119140625,-0.1103515625,-7.375,2.25,15.1875
-1.3397973925359166,-2.07759964879822,-26.575263023671887,-0.6909752124730201,-0.6589558044141669,-0.5495927714325803,0.7473818186105641,-2.850432081515707,-1.2286795619788249,-1.3574721852340477,0.3715643605003697,0.94189453125,-0.28466796875,0.078125,-5.5625,-3.75,22.125
-2.260579439534959,-1.327236672898704,-3.762255564037309,0.7770099417781996,1.2919360230629766,6.745297057106959,3.649279634391213,0.5264534877968126,-1.2461144053063695,-1.3441684004917565,0.3870942521884733,0.99072265625,-0.287109375,0.13916015625,-8.0,-2.0,33.3125
-1.0538073541351745,-2.4859511074434484,20.659979831861236,-1.4108194402379968,-0.48700839067579793,-1.5540699007600651,-2.293967520898988,-1.1220848970542283,-1.2662196847848999,-1.3253827705663863,0.4038018304390809,1.0048828125,-0.32177734375,0.15966796875,-11.5625,0.3125,49.5
-0.8772685930131858,2.439773724924282,-29.316880563096042,-2.110237298176717,-1.6154346684051084,-6.203610188685552,-1.5973441253015574,-2.265986270730314,-1.2916637489104796,-1.3001720596392854,0.42176692746480987,1.01611328125,-0.3369140625,0.1494140625,-24.1875,3.5,68.5625
2.296118580033543,5.733284594728681,-37.74424241096374,0.5350965007191638,-2.564443131294169,-4.438092220831362,-0.16245316374566668,1.5050905165861093,-1.3224534022787746,-1.2672632270590896,0.4417635284016013,1.02294921875,-0.4521484375,0.16259765625,-33.625,3.4375,86.125
-3.9619248628464785,-7.81183744423841,63.27955438803223,-3.6397622972896415,-3.040384467563065,0.4681519031455688,-2.812594828322994,-5.339800292975237,-1.3585669493639856,-1.2277678067387254,0.4651433326481178,1.03662109375,-0.57080078125,0.15185546875,-40.1875,3.625,111.6875
-2.158525244727004,-1.7001871153344923,24.42804311490139,1.1933448283239199,2.1994743505998806,4.906094560399428,6.810968808852914,0.19224206719436207,-1.3937726590333543,-1.1758598999163954,0.4863330962397314,1.0673828125,-0.68310546875,0.13623046875,-44.375,6.3125,146.0
-1.3965803150812846,-5.6219903018048925,33.47753716577043,-0.38307967255527076,0.41610652630567274,0.6222538691889535,-6.694305633112437,-0.6214493282206621,-1.4263651296752284,-1.1118932001653403,0.5076989469795371,1.095703125,-0.833984375,0.08056640625,-37.5625,4.25,180.125
0.7504929111816868,7.74146305740038,-31.6611408261048,-1.2942155507982298,-2.5971862949082367,-3.321606352061158,5.097631138220783,-0.5962086075169415,-1.4549705064535152,-1.0359505504921516,0.530013511140381,1.15625,-0.958984375,0.072265625,-25.3125,-1.625,215.6875
-1.4883555438857674,-7.891297773829516,-37.23398259103196,-2.4659367217203334,-1.205833196577071,-8.092837994873573,-15.285760761149815,-4.9155887411236945,-1.4735297701875745,-0.949552413713996,0.550622989538522,1.15478515625,-1.0400390625,0.05419921875,-3.5625,-5.6875,246.4375
2.362773091827158,30.735175531089766,-25.752972124161715,-6.0225127626470805,-6.253820028947185,-6.740845753609714,12.655129240977672,1.3605766235357941,-1.4867797546332226,-0.8537171253410979,0.5716570527793605,1.12255859375,-1.04931640625,-0.0078125,10.625,-11.25,275.875
1.5276792141824465,-27.806428586323797,17.386992548742736,-0.9932426701726103,-1.7601958891075247,-0.601439224009346,2.0244829896076677,0.6472618000818615,-1.498263202200692,-0.7488091532104778,0.5958763368220105,1.046875,-1.0859375,-0.06005859375,18.5,-23.0,304.25
